Time (s),Gyroscope X (deg/s),Gyroscope Y (deg/s),Gyroscope Z (deg/s),Accelerometer X (g),Accelerometer Y (g),Accelerometer Z (g)
0,0.2509459,-0.2747676,0.2215545,-0.3716461,0.3461154,0.8569804
0,0.2509459,-0.2747676,0.2215545,-0.3716461,0.3461154,0.8569804
0.002509117,0.3126058,-0.3947096,0.09940146,-0.3682816,0.3510009,0.8531353
0.005019188,0.2509459,-0.1548255,0.160478,-0.3697195,0.3451575,0.8535731
0.007528305,0.3126058,-0.1548255,0.160478,-0.3716875,0.3490461,0.8521766
0.010037899,0.189286,-0.2147966,0.160478,-0.3677949,0.3519742,0.8536242
0.012547016,0.1276261,-0.1548255,0.2826311,-0.3687623,0.3471102,0.8521347
0.015056133,0.3126058,0.02508752,0.2215545,-0.3692678,0.3490592,0.8502246
0.017565727,0.3126058,-0.2147966,0.2826311,-0.3701959,0.3480673,0.8565047
0.020074844,0.189286,-0.2147966,0.09940146,-0.3687248,0.3495255,0.8589236
0.022584438,0.2509459,0.08505853,0.09940146,-0.3667793,0.3456453,0.8569375
0.025093555,0.3126058,-0.09485453,0.160478,-0.3692318,0.3427294,0.8525791
0.027603149,0.3126058,-0.2147966,0.09940146,-0.3721518,0.3470927,0.8545776
0.030112267,0.189286,0.02508752,-0.02275162,-0.3726288,0.3461157,0.8555384
0.032622337,-0.05735363,0.02508752,0.2215545,-0.3741183,0.3504947,0.8531764
0.035131454,0.06596617,-0.09485453,0.160478,-0.3741043,0.3470885,0.8536265
0.037641048,0.189286,-0.2147966,0.160478,-0.3711998,0.346618,0.8511826
0.040150166,0.3126058,0.02508752,0.03832492,-0.3731348,0.3451496,0.8521502
0.042659283,0.3126058,0.02508752,0.2826311,-0.3687431,0.3461313,0.8545414
0.045168877,0.3742657,0.08505853,0.2215545,-0.3716414,0.3456277,0.8574589
0.047677994,0.3742657,0.08505853,0.160478,-0.3702105,0.3475869,0.8540838
0.050187588,0.3742657,0.08505853,0.2215545,-0.3716512,0.3446597,0.8555166
0.052696705,0.3126058,-0.1548255,0.2826311,-0.3687558,0.3471078,0.8531012
0.055206299,0.189286,-0.0348835,0.160478,-0.3702155,0.3461312,0.8526199
0.057715416,0.3742657,0.2050006,0.09940146,-0.3721524,0.3534091,0.8575385
0.060224533,0.3126058,0.02508752,0.160478,-0.3692419,0.3500211,0.8545831
0.062734127,0.3126058,0.08505853,0.2215545,-0.3711801,0.3485541,0.8550674
0.065243244,0.189286,0.08505853,0.2215545,-0.3707169,0.3539089,0.8541493
0.067753315,0.3126058,-0.09485453,0.160478,-0.3721624,0.3514694,0.8551035
0.070262432,0.4975855,-0.09485453,-0.02275162,-0.3726225,0.3451416,0.8560121
0.072772026,0.3126058,0.08505853,-0.02275162,-0.3701796,0.3490329,0.8594136
0.075281143,0.2509459,0.1450296,-0.02275162,-0.3687469,0.3524489,0.8570191
0.077790737,0.4359255,0.3249426,0.03832492,-0.3702091,0.3461288,0.8535864
0.080299854,0.4359255,-0.09485453,0.160478,-0.3736276,0.3461221,0.8516803
0.082809925,0.3742657,0.08505853,-0.08382816,-0.3750643,0.348052,0.8560597
0.085318565,0.3126058,0.2050006,0.03832492,-0.3735968,0.3475681,0.8570099
0.087827683,0.3126058,-0.1548255,0.160478,-0.3745987,0.3485474,0.8531613
0.090337276,0.2509459,-0.1548255,-0.02275162,-0.3692626,0.3514865,0.8521812
0.092846394,0.3126058,-0.09485453,0.03832492,-0.3711944,0.350017,0.853632
0.095355988,0.2509459,-0.0348835,0.09940146,-0.3755608,0.3461107,0.8536285
0.097865582,0.189286,0.02508752,0.09940146,-0.3706795,0.3461211,0.8560063
0.100375175,0.2509459,0.1450296,0.03832492,-0.3677714,0.3475927,0.8550311
0.102884293,0.189286,0.1450296,-0.02275162,-0.3707036,0.346616,0.8526285
0.105393887,0.2509459,0.1450296,0.03832492,-0.3712016,0.3451611,0.850202
0.107903004,0.3126058,0.1450296,-0.1449047,-0.3726723,0.3466179,0.8492612
0.110412598,0.3742657,-0.1548255,0.160478,-0.3711849,0.3490417,0.8545889
0.112921715,0.3126058,0.08505853,0.03832492,-0.3726209,0.3456268,0.8565001
0.115430832,0.4975855,0.2649716,-0.08382816,-0.3711757,0.3461231,0.8545605
0.117940426,0.4359255,-0.0348835,0.09940146,-0.3706899,0.3412664,0.8520932
0.120449543,0.4359255,0.02508752,0.160478,-0.3711441,0.3422243,0.8574219
0.122959137,0.3742657,0.08505853,0.09940146,-0.3726262,0.3422278,0.8540508
0.125468731,0.4975855,0.2050006,0.09940146,-0.3726179,0.3436823,0.8559979
0.127978325,0.4975855,0.2050006,0.160478,-0.3711665,0.3432044,0.8545321
0.130487442,0.6209053,0.2649716,0.2215545,-0.3711953,0.344187,0.8506758
0.132997036,0.5592454,0.3849136,0.160478,-0.3706988,0.3461283,0.853107
0.135506153,0.5592454,0.2649716,0.03832492,-0.3741094,0.3456328,0.8521625
0.138015747,0.7442251,0.2050006,0.03832492,-0.3711951,0.3451587,0.8511685
0.140524864,0.7442251,-0.0348835,0.2826311,-0.3697218,0.3407857,0.8511143
0.143033981,0.6825652,-0.1548255,0.2826311,-0.3712143,0.3461376,0.8487617
0.153071404,0.4359255,-0.09485453,0.09940146,-0.3707178,0.3480789,0.8511931
0.153071404,0.4359255,-0.09485453,0.09940146,-0.3707178,0.3480789,0.8511931
0.155581474,0.6209053,0.2050006,0.160478,-0.3721521,0.3451493,0.8535922
0.158090591,0.6209053,-0.09485453,0.09940146,-0.3692693,0.3495456,0.8502294
0.160600185,0.5592454,-0.0348835,0.03832492,-0.3668407,0.3446967,0.8472635
0.163109303,0.5592454,-0.2147966,0.09940146,-0.3736283,0.3422355,0.8497095
0.165618897,0.5592454,-0.09485453,0.160478,-0.3726549,0.344182,0.8506872
0.168128014,0.4975855,-0.09485453,0.2826311,-0.3682713,0.3446809,0.851624
0.170637131,0.5592454,0.02508752,0.160478,-0.3712082,0.3441918,0.8487428
0.173146725,0.6209053,-0.1548255,0.2215545,-0.3677458,0.3466113,0.8584042
0.175655842,0.4975855,-0.09485453,0.2215545,-0.3721451,0.3490336,0.8565295
0.178165436,0.4359255,-0.09485453,0.2215545,-0.3726698,0.3519614,0.8522127
0.180674553,0.4975855,-0.2147966,0.2215545,-0.3707201,0.3539101,0.8536661
0.18318367,0.3742657,-0.09485453,0.09940146,-0.3726807,0.3543948,0.8517532
0.185693264,0.3126058,-0.09485453,0.03832492,-0.3707097,0.3485618,0.8526474
0.188203335,0.3742657,-0.2747676,0.09940146,-0.3687592,0.3461373,0.8521252
0.190712452,0.4975855,-0.09485453,-0.02275162,-0.3682843,0.3437141,0.8491983
0.193222046,0.6209053,0.02508752,0.160478,-0.3706586,0.3456273,0.8589009
0.195731163,0.6825652,-0.3347386,0.160478,-0.3682471,0.3451576,0.8554945
0.19824028,0.6209053,-0.0348835,0.09940146,-0.3658508,0.3495523,0.8521355
0.200749874,0.5592454,0.1450296,-0.02275162,-0.3677921,0.3490581,0.8526292
0.203258991,0.6209053,-0.0348835,0.160478,-0.3706997,0.3505014,0.8550825
0.205768585,0.6825652,-0.0348835,0.2215545,-0.3692235,0.3441839,0.8545262
0.208277702,0.7442251,-0.1548255,0.160478,-0.3755595,0.3446526,0.8531311
0.21078682,0.805885,-0.1548255,0.4047842,-0.3755713,0.3514591,0.854647
0.213296413,0.7442251,-0.0348835,0.2215545,-0.3692644,0.3500296,0.8512005
0.215805531,0.8675449,-0.09485453,0.09940146,-0.3619427,0.3485877,0.8540283
0.218315125,0.8675449,0.1450296,0.3437076,-0.3643591,0.3485734,0.8564636
0.220825195,0.7442251,-0.0348835,0.3437076,-0.3726532,0.3446673,0.8511752
0.223334312,0.8675449,-0.0348835,0.2826311,-0.3721454,0.3470902,0.855544
0.22584343,0.805885,-0.1548255,0.160478,-0.3662838,0.3417568,0.8564125
0.228353024,0.9908647,-0.1548255,0.160478,-0.367757,0.3368983,0.8520276
0.230862141,0.805885,0.1450296,0.4047842,-0.3731204,0.3446584,0.8540784
0.233371735,0.7442251,-0.09485453,0.3437076,-0.3726615,0.3432128,0.849228
0.235880852,0.8675449,-0.3347386,0.3437076,-0.371208,0.3451635,0.8492355
0.238389969,0.9908647,-0.0348835,0.3437076,-0.372156,0.3412639,0.8511382
0.240899563,0.9908647,-0.0348835,0.2215545,-0.3716831,0.3466151,0.8516697
0.24340868,0.9292048,-0.1548255,0.5269372,-0.3731024,0.3461092,0.8574751
0.245918274,0.9292048,-0.2747676,0.4047842,-0.3726463,0.3475799,0.8536198
0.248427391,1.052525,-0.1548255,0.2215545,-0.3741172,0.3470933,0.8516936
0.250937462,1.052525,-0.2147966,0.5269372,-0.3712074,0.3490502,0.8512064
0.253446579,1.175844,-0.09485453,0.6490903,-0.3716929,0.3456471,0.8497273
0.255956173,1.237504,-0.2147966,0.5880138,-0.3707286,0.351484,0.8512262
0.25846529,0.9292048,-0.1548255,0.5269372,-0.3672842,0.351481,0.8569981
0.260974884,1.052525,-0.2147966,0.4658607,-0.3702239,0.3539082,0.8551118
0.263484001,0.8675449,-0.09485453,0.3437076,-0.3707287,0.3505123,0.8507335
0.265993118,0.805885,-0.09485453,0.2826311,-0.3731356,0.3504944,0.8546184
0.268502712,0.8675449,-0.0348835,0.3437076,-0.3668252,0.3510071,0.8526405
0.271011829,0.805885,-0.0348835,0.4047842,-0.3673062,0.3553761,0.8555863
0.273521423,0.5592454,-0.09485453,0.4658607,-0.3697424,0.3534257,0.8541369
0.276031494,0.3742657,-0.2747676,0.3437076,-0.3701922,0.3611841,0.8633978
0.278540134,-2.708729,-0.2747676,0.7101669,-0.3704557,0.3649855,0.8987148
0.281049728,-0.6122927,-0.1548255,0.5880138,-0.3788731,0.3156395,0.7799028
0.283559322,1.114184,-0.2147966,0.160478,-0.3530277,0.3466146,0.8766521
0.28606844,0.5592454,0.4448847,0.160478,-0.3721417,0.350004,0.8575054
0.288578034,0.4359255,-0.2747676,0.2215545,-0.3819275,0.3461051,0.8473962
0.291087151,0.4975855,-0.2747676,0.2826311,-0.3754647,0.3431593,0.8666471
0.293596268,0.2509459,-0.09485453,-0.2670578,-0.3769509,0.3475372,0.8647683
0.296105862,0.189286,-0.5146517,-0.4502874,-0.3784483,0.3227676,0.847142
0.298614979,0.9908647,-0.9344488,0.160478,-0.3575957,0.3617327,0.8555714
0.301124573,0.6825652,-0.09485453,0.2826311,-0.3560053,0.3437116,0.8664989
0.30363369,0.805885,0.2050006,0.4658607,-0.3707238,0.3407933,0.8467729
0.306143284,1.052525,-0.0348835,0.5880138,-0.3750976,0.3514656,0.8527102
0.308652401,1.299164,0.02508752,0.5880138,-0.3726104,0.3504815,0.8604133
0.311161518,1.114184,-0.1548255,0.5269372,-0.3716483,0.3427152,0.8550144
0.313671589,1.114184,0.02508752,0.5269372,-0.3677878,0.3456554,0.8516296
0.316181183,1.175844,0.2649716,0.7101669,-0.3673185,0.3490645,0.8506926
0.3186903,1.237504,0.02508752,0.7101669,-0.3730923,0.3490206,0.8604029
0.321199417,1.237504,-0.0348835,0.5880138,-0.3721414,0.3519473,0.8584908
0.323709011,1.299164,0.2050006,0.4658607,-0.3692781,0.3553792,0.8517359
0.326218128,1.360824,0.1450296,0.5880138,-0.372169,0.3505001,0.8536444
0.328727722,1.299164,0.1450296,0.5269372,-0.371208,0.3553666,0.8541673
0.331236839,1.175844,0.08505853,0.5880138,-0.3721509,0.3529226,0.8575338
0.333746433,1.175844,0.2050006,0.8933965,-0.3692164,0.3480681,0.8574635
0.33625555,1.299164,0.1450296,0.7101669,-0.370644,0.3461078,0.8613218
0.338764668,1.422484,0.02508752,0.7712434,-0.3721451,0.3490336,0.8565295
0.341274262,1.237504,0.3849136,0.5880138,-0.3702135,0.3485598,0.8540933
0.343784332,1.299164,0.2649716,0.5269372,-0.3668398,0.3505267,0.8502197
0.346293449,1.299164,0.2050006,0.5269372,-0.368296,0.3514922,0.8512071
0.348802567,1.237504,0.3849136,0.6490903,-0.3692383,0.3519633,0.8560517
0.351312161,1.175844,0.1450296,0.5880138,-0.3721541,0.3529238,0.8570506
0.353821278,1.052525,0.3849136,0.4658607,-0.3721754,0.3505026,0.8526779
0.356330872,1.175844,0.3849136,0.5269372,-0.3692933,0.3510122,0.8473442
0.358839989,1.114184,0.3249426,0.5269372,-0.3756,0.3534133,0.8512834
0.361349583,0.9908647,0.2050006,0.5269372,-0.3755891,0.3509799,0.8517429
0.3638587,0.9292048,0.2050006,0.3437076,-0.3668298,0.3524664,0.8526548
0.366367817,1.052525,0.3249426,0.2826311,-0.3658482,0.3558675,0.8555796
0.368877411,0.9292048,0.02508752,0.5880138,-0.3726537,0.3519554,0.8546288
0.371386528,0.9908647,0.2050006,0.5880138,-0.3706933,0.350499,0.8560489
0.373896599,0.9292048,0.2649716,0.4658607,-0.3702334,0.3548834,0.8541549
0.376405716,0.8675449,0.1450296,0.5269372,-0.3673465,0.3549054,0.8492997
0.37891531,0.805885,-0.0348835,0.4047842,-0.3668374,0.3548986,0.8526784
0.381424427,0.6825652,0.1450296,0.4047842,-0.3707349,0.3524581,0.8507525
0.383934021,0.7442251,0.1450296,0.4658607,-0.3673226,0.3534388,0.8521848
0.386443138,0.7442251,0.08505853,0.4047842,-0.3716993,0.3558526,0.8536927
0.388952732,0.6825652,0.08505853,0.2826311,-0.3712269,0.3582888,0.852746
0.391461849,0.6825652,-0.0348835,0.4047842,-0.3755817,0.3568074,0.8556656
0.393970966,0.5592454,0.08505853,0.2826311,-0.3726739,0.3563357,0.853705
0.39648056,0.4975855,-0.0348835,0.3437076,-0.3707303,0.3509988,0.8507383
0.398989678,0.6209053,-0.0348835,0.4658607,-0.3692353,0.3509904,0.8560422
0.401499271,0.6209053,0.02508752,0.4047842,-0.3678205,0.3529556,0.8502511
0.404008865,0.3742657,-0.0348835,0.2826311,-0.3678561,0.3519973,0.8444428
0.406518459,0.4359255,0.2649716,0.3437076,-0.3697652,0.3514909,0.8497689
0.409027577,0.3742657,0.08505853,0.5269372,-0.3731425,0.3475818,0.8521739
0.411537171,0.4359255,-0.09485453,0.5269372,-0.366806,0.3500281,0.8550472
0.414046288,0.4975855,0.02508752,0.3437076,-0.3682981,0.348092,0.849241
0.416555882,0.5592454,0.08505853,0.3437076,-0.367281,0.3514797,0.8574814
0.419064999,0.4975855,0.08505853,0.3437076,-0.3702629,0.3519793,0.8483277
0.421574116,0.4359255,0.1450296,0.4047842,-0.3712208,0.34614,0.8477953
0.42408371,0.4359255,-0.0348835,0.2826311,-0.3726594,0.346613,0.8511941
0.426592827,0.3742657,0.02508752,0.3437076,-0.3736075,0.3509732,0.8570431
0.429102421,0.4359255,-0.09485453,0.5269372,-0.3701548,0.3431932,0.8603231
0.431611538,0.4359255,-0.2147966,0.5880138,-0.3691885,0.3412556,0.8583636
0.434121609,0.5592454,-0.0348835,0.5269372,-0.3692396,0.3441899,0.8521101
0.436630726,0.5592454,-0.2147966,0.6490903,-0.371669,0.3441805,0.8526124
0.43914032,0.6209053,-0.2147966,0.7101669,-0.3706652,0.3446581,0.8574418
0.441649437,0.4975855,-0.09485453,0.4658607,-0.3697319,0.3480774,0.8531183
0.444159031,0.6209053,-0.1548255,0.7101669,-0.3746055,0.3466065,0.8512094
0.446668148,0.6209053,0.02508752,0.7101669,-0.3716254,0.34465,0.8593824
0.449177265,0.8675449,-0.2747676,0.6490903,-0.3682475,0.3422427,0.8540164
0.451686859,0.9908647,-0.1548255,0.6490903,-0.3658416,0.3466336,0.852107
0.454195976,0.9292048,0.02508752,0.7712434,-0.3697451,0.3461389,0.8502
0.45670557,0.9292048,0.08505853,0.8933965,-0.3697233,0.3514751,0.8560508
0.459214687,0.9292048,-0.1548255,0.954473,-0.371703,0.3529388,0.8517313
0.461724758,1.114184,-0.1548255,0.8933965,-0.3697629,0.3558628,0.8522276
0.464233875,0.9908647,-0.1548255,0.954473,-0.3678042,0.3539212,0.8531599
0.466743469,1.175844,-0.09485453,0.83232,-0.3658629,0.3544154,0.8526661
0.469252586,1.175844,-0.2147966,0.7712434,-0.3692946,0.3524703,0.8478416
0.47176218,1.114184,-0.1548255,0.8933965,-0.3707079,0.3500186,0.8536282
0.474271298,1.114184,-0.1548255,0.7712434,-0.3716595,0.3534083,0.8585011
0.476780415,1.114184,-0.0348835,0.83232,-0.3693325,0.3573431,0.8445064
0.479290009,1.052525,-0.1548255,0.83232,-0.3692881,0.3534395,0.8493007
0.481799126,0.9908647,0.02508752,0.83232,-0.3702847,0.3568461,0.8474087
0.48430872,0.9908647,-0.09485453,0.7101669,-0.3717501,0.3607303,0.8484245
0.486817837,0.805885,-0.2747676,0.83232,-0.368815,0.3597624,0.850325
0.489326954,0.9292048,0.1450296,0.5880138,-0.3687668,0.3587726,0.8570807
0.491836548,0.7442251,-0.2147966,0.7101669,-0.3678054,0.356351,0.85415
0.494346619,0.8675449,-0.0348835,0.6490903,-0.3683253,0.3597628,0.8508044
0.496855736,0.5592454,0.02508752,0.5880138,-0.3722032,0.3582867,0.8522704
0.49936533,0.5592454,0.02508752,0.5269372,-0.3722113,0.3578039,0.8508161
0.501874447,0.3126058,-0.09485453,0.5880138,-0.3663554,0.3573312,0.8531816
0.504383564,0.3742657,-0.2147966,0.3437076,-0.3717435,0.3616996,0.8498837
0.506893158,0.2509459,-0.2147966,0.3437076,-0.3673761,0.3612327,0.8479116
0.509402275,-0.05735363,-0.2147966,0.3437076,-0.3663821,0.361714,0.8512913
0.511911869,0.1276261,-0.0348835,0.2215545,-0.3678746,0.3670659,0.8489387
0.514420986,0.004306266,-0.0348835,0.3437076,-0.367878,0.3660954,0.8479628
0.516930103,-0.1190135,-0.3347386,0.3437076,-0.3663979,0.3636633,0.8498605
0.519439697,-0.3656531,-0.3947096,0.160478,-0.3688309,0.3607402,0.8484015
0.521948815,-0.4889729,-0.2747676,0.09940146,-0.3678481,0.3617115,0.8503363
0.524458885,-0.427313,-0.3347386,0.03832492,-0.3678643,0.3607458,0.8474274
0.526968479,-0.6122927,-0.5146517,0.09940146,-0.3654068,0.3558861,0.8488106
0.529477596,-0.8589323,-0.2747676,0.03832492,-0.3702572,0.3573216,0.8517625
0.531986714,-0.9205922,-0.2147966,-0.2059812,-0.3722244,0.3568372,0.8483904
0.534496307,-0.9822521,-0.5146517,-0.02275162,-0.3712606,0.3587874,0.8479185
0.537005425,-0.9822521,-0.6345937,0.160478,-0.366852,0.3544182,0.8502576
0.539515019,-1.105572,-0.5146517,-0.02275162,-0.3668456,0.3544158,0.8512241
0.542024136,-1.043912,-0.4546807,-0.2059812,-0.368315,0.3534428,0.8492931
0.544533253,-0.9822521,-0.2747676,-0.1449047,-0.3697872,0.355386,0.8483571
0.547042847,-1.043912,-0.5146517,-0.02275162,-0.3726777,0.3524503,0.851251
0.549551964,-0.9822521,-0.3947096,0.03832492,-0.37264,0.3466058,0.8540935
0.552061558,-0.8589323,-0.5746227,-0.08382816,-0.3707109,0.3509915,0.8536376
0.554571629,-1.167232,-0.5146517,0.03832492,-0.3668381,0.3510119,0.8507077
0.557080746,-1.167232,-0.5746227,-0.1449047,-0.3682779,0.3539147,0.8550966
0.559589863,-1.043912,-0.5746227,-0.08382816,-0.3692161,0.3500114,0.8584489
0.562099457,-1.043912,-0.5146517,0.03832492,-0.3697208,0.3475873,0.8545632
0.564608574,-0.9205922,-0.3947096,0.09940146,-0.3707001,0.3485581,0.8540971
0.567118168,-0.9822521,-0.5146517,-0.02275162,-0.3682785,0.350028,0.8531258
0.569627285,-1.043912,-0.5146517,-0.02275162,-0.3702341,0.3509968,0.8521841
0.572136402,-0.7972724,-0.4546807,0.09940146,-0.3677949,0.3519742,0.8536242
0.574645996,-0.6739526,-0.4546807,0.2215545,-0.3662995,0.3446778,0.8554745
0.577155113,-0.5506328,-0.2147966,-0.02275162,-0.3711438,0.3441676,0.8584073
0.579664707,-0.427313,-0.2147966,0.09940146,-0.3687362,0.3490439,0.8569859
0.582173824,-0.5506328,-0.2747676,0.160478,-0.3672479,0.3470945,0.8603381
0.584683895,-0.427313,-0.09485453,0.3437076,-0.3697137,0.3412685,0.8525687
0.587193012,-0.3039932,-0.3347386,0.09940146,-0.3663114,0.3505126,0.8564978
0.587193012,-0.3039932,-0.3347386,0.09940146,-0.3663114,0.3505126,0.8564978
0.589702606,-0.1806734,-0.2747676,0.2215545,-0.3667907,0.3451638,0.8549998
0.592211723,0.06596617,-0.2147966,0.3437076,-0.3667528,0.3402909,0.858335
0.594721317,0.189286,-0.2147966,0.5269372,-0.3687526,0.3471066,0.8535844
0.597230435,0.2509459,-0.3347386,0.4658607,-0.3672789,0.3446769,0.8545157
0.599739552,0.2509459,-0.1548255,0.4047842,-0.3657482,0.3363955,0.8611888
0.602249146,0.3742657,-0.2147966,0.7101669,-0.3667672,0.3407822,0.8564069
0.604758263,0.5592454,-0.1548255,0.5269372,-0.3702089,0.3471004,0.8540791
0.607267857,0.4975855,-0.09485453,0.4658607,-0.3687397,0.3471017,0.8555173
0.609776974,0.4975855,0.02508752,0.6490903,-0.3672749,0.3393309,0.8525307
0.612286568,0.805885,0.08505853,0.6490903,-0.3628873,0.3446869,0.8564142
0.614796162,1.052525,0.02508752,0.5880138,-0.3658141,0.3471092,0.8564608
0.617305756,0.9908647,-0.1548255,0.7712434,-0.3726204,0.3485419,0.8579782
0.619814873,1.052525,-0.09485453,0.83232,-0.3702313,0.3480806,0.8511893
0.622324467,1.114184,-0.0348835,0.83232,-0.3682662,0.3461366,0.8530879
0.624833584,1.175844,0.2649716,0.7712434,-0.367778,0.3466235,0.853572
0.627342701,1.360824,0.1450296,0.8933965,-0.3672991,0.3490573,0.8535919
0.629852295,1.299164,0.08505853,1.01555,-0.368267,0.3514813,0.8555561
0.632361412,1.360824,0.2649716,0.954473,-0.3677731,0.3471074,0.8545432
0.634871483,1.422484,0.2050006,0.83232,-0.3677944,0.3548892,0.8551022
0.637380123,1.360824,0.2050006,0.954473,-0.3697801,0.3592703,0.8512944
0.639889717,1.484144,0.3249426,0.954473,-0.3692684,0.3553756,0.8531856
0.642399311,1.360824,0.3849136,1.01555,-0.3658375,0.3524624,0.8555465
0.644908905,1.360824,0.2649716,1.01555,-0.3677708,0.3514793,0.857002
0.647418022,1.360824,0.2050006,1.01555,-0.368802,0.3505262,0.8478189
0.649927616,1.360824,0.2050006,1.01555,-0.3707448,0.3505184,0.8483173
0.652436733,1.299164,0.2649716,0.83232,-0.3682736,0.3505121,0.8540969
0.654945851,1.299164,0.3249426,1.01555,-0.3707238,0.3509963,0.8517047
0.657455444,1.422484,0.2050006,0.83232,-0.3663783,0.3553964,0.8488135
0.659964562,1.422484,0.2649716,0.954473,-0.3688143,0.3544177,0.8478567
0.662474156,1.484144,0.2649716,1.01555,-0.3697344,0.3529369,0.8550985
0.664983273,1.484144,0.02508752,0.954473,-0.3653695,0.3471266,0.8501751
0.667492867,1.422484,0.1450296,0.83232,-0.3638772,0.3500344,0.856474
0.670001984,1.422484,0.1450296,0.954473,-0.3687715,0.3500288,0.8521631
0.672511101,1.545804,0.3849136,1.01555,-0.3648835,0.3534446,0.8531322
0.675021172,1.669124,0.3249426,0.8933965,-0.3716983,0.3524511,0.8522097
0.677530766,1.607464,0.02508752,0.954473,-0.3673044,0.3466299,0.8516353
0.680039883,1.545804,0.3849136,0.954473,-0.3653534,0.3471205,0.8525912
0.682549,1.484144,0.3849136,0.954473,-0.3687857,0.3514918,0.8507277
0.685058594,1.484144,0.2649716,1.01555,-0.3716728,0.3504981,0.8550901
0.687567711,1.422484,0.08505853,1.137703,-0.3731179,0.3500019,0.8570298
0.690077305,1.607464,0.1450296,0.954473,-0.372643,0.3485503,0.8545957
0.692586422,1.730783,0.2050006,1.01555,-0.3702503,0.3500311,0.8492752
0.695096016,1.669124,0.08505853,1.198779,-0.3726321,0.3461169,0.8550552
0.697605133,1.607464,0.02508752,1.198779,-0.3730994,0.3451363,0.8574656
0.70011425,1.730783,0.2050006,1.137703,-0.3702582,0.3514917,0.8488062
0.702624321,1.730783,0.2050006,1.259856,-0.3682914,0.3500329,0.8511929
0.705133915,1.792443,0.1450296,1.198779,-0.3717202,0.3563463,0.850798
0.707643032,1.730783,0.08505853,1.259856,-0.3692702,0.3539187,0.8522049
0.710152149,1.669124,-0.09485453,1.382009,-0.3692607,0.3529434,0.8531619
0.712661743,1.484144,0.08505853,1.198779,-0.3688086,0.35976,0.8512915
0.71517086,1.360824,0.1450296,1.259856,-0.3736707,0.3587707,0.8513202
0.717680454,1.237504,-0.1548255,1.259856,-0.3717374,0.3597538,0.8498647
0.720189572,1.422484,-0.2747676,1.320932,-0.3693292,0.3583136,0.8454823
0.722699166,1.422484,-0.3347386,1.320932,-0.3654317,0.3607541,0.8474084
0.725208283,1.175844,-0.4546807,1.137703,-0.3649484,0.3607569,0.8469213
0.7277174,1.052525,-0.5746227,1.259856,-0.3712673,0.3578181,0.8464593
0.730226994,0.9292048,-0.4546807,1.198779,-0.3673537,0.3602526,0.8508015
0.732736111,0.9292048,-0.2747676,1.076626,-0.3668824,0.3558872,0.8464059
0.735246182,0.8675449,-0.3347386,0.8933965,-0.3653827,0.3553911,0.8521885
0.737755299,0.7442251,-0.4546807,1.076626,-0.3668784,0.3607443,0.8493527
0.740264893,0.6825652,-0.5746227,1.137703,-0.3702474,0.3582897,0.8537049
0.74277401,0.6209053,-0.4546807,0.954473,-0.3692537,0.3568276,0.8560991
0.745283604,0.7442251,-0.4546807,1.01555,-0.3688236,0.3563646,0.8473924
0.747792721,0.7442251,-0.3347386,0.954473,-0.3644262,0.3524855,0.8482866
0.750302315,0.6209053,-0.4546807,1.198779,-0.3673021,0.3510018,0.8540941
0.752811432,0.5592454,-0.6945647,1.137703,-0.3673091,0.3573206,0.8560885
0.755320549,0.6209053,-0.5146517,1.076626,-0.3683408,0.3534525,0.8454273
0.757830143,0.6825652,-0.6345937,1.137703,-0.3638932,0.3510121,0.8545505
0.76033926,0.8675449,-0.6345937,1.198779,-0.3634727,0.3607558,0.8493259
0.762849331,0.7442251,-0.3347386,1.076626,-0.3629881,0.3593006,0.8483415
0.765358448,0.5592454,-0.3947096,1.076626,-0.3615234,0.3607612,0.8497939
0.767868042,0.6825652,-0.5746227,0.954473,-0.3659324,0.363187,0.8464693
0.770377159,0.8675449,-0.3347386,0.8933965,-0.3615038,0.3626972,0.8536787
0.772886753,0.8675449,-0.2747676,0.7712434,-0.3610331,0.3646482,0.8522441
0.77539587,0.9292048,-0.2147966,0.7712434,-0.3692932,0.3612152,0.8522759
0.777905464,0.9292048,-0.2147966,0.6490903,-0.361987,0.363666,0.8546584
0.780414581,0.9292048,-0.2747676,0.7101669,-0.3610079,0.3607519,0.8541391
0.782923699,0.9292048,-0.0348835,0.5269372,-0.3634571,0.3578348,0.850264
0.785433293,0.9292048,-0.0348835,0.5269372,-0.3653998,0.3587987,0.8512552
0.78794241,0.7442251,-0.1548255,0.7101669,-0.3624931,0.3617283,0.8507775
0.790452004,0.8675449,0.08505853,0.4658607,-0.3630117,0.3627105,0.8464417
0.792961121,0.805885,-0.0348835,0.4047842,-0.3639255,0.3602556,0.8541573
0.795471192,0.6825652,-0.2147966,0.5269372,-0.3673121,0.3582935,0.856098
0.797980309,0.6825652,-0.2147966,0.3437076,-0.3653817,0.3612211,0.8551447
0.800489903,0.805885,-0.2747676,0.2826311,-0.365915,0.3607512,0.8478954
0.80299902,0.6209053,-0.1548255,0.3437076,-0.3693034,0.3583039,0.8493481
0.805508614,0.6209053,-0.09485453,0.4047842,-0.3678238,0.3621882,0.8542069
0.808017731,0.6209053,-0.0348835,0.2215545,-0.3688557,0.3573484,0.8430529
0.810526848,0.4359255,-0.09485453,0.3437076,-0.3688248,0.3587944,0.8483826
0.813036442,0.189286,-0.2747676,0.4658607,-0.3737276,0.3655941,0.846071
0.815545559,0.3126058,-0.3347386,0.2826311,-0.3663916,0.3626893,0.8503343
0.818055153,0.3126058,-0.6345937,0.5269372,-0.3707502,0.3573224,0.8507999
0.82056427,0.06596617,-0.3947096,0.4047842,-0.3697882,0.3587875,0.8498399
0.823074341,-0.05735363,-0.3947096,0.3437076,-0.3639897,0.3622232,0.8454782
0.825583458,-0.1190135,-0.6945647,0.3437076,-0.3663997,0.3622065,0.8488799
0.828093052,-0.1806734,-0.4546807,0.2215545,-0.3644036,0.3626801,0.8566009
0.830602169,-0.427313,-0.5746227,0.3437076,-0.365394,0.3651126,0.8551826
0.833111763,-0.427313,-0.6945647,0.2826311,-0.3649512,0.3636731,0.8479162
0.83562088,-0.6122927,-0.6345937,0.2215545,-0.3678525,0.3641424,0.8508433
0.838129997,-0.6122927,-0.4546807,0.2826311,-0.364001,0.3617416,0.8435405
0.840639591,-0.4889729,-0.5746227,0.09940146,-0.3659562,0.3656253,0.844077
0.843148709,-0.7356125,-0.6945647,0.03832492,-0.3639371,0.3680337,0.856166
0.845658303,-0.7972724,-0.5746227,0.09940146,-0.3698055,0.3612233,0.8484139
0.84816742,-0.7972724,-0.5746227,0.03832492,-0.3697542,0.3602322,0.8556529
0.850677014,-0.8589323,-0.4546807,-0.02275162,-0.3644076,0.357823,0.8536543
0.853186608,-0.7972724,-0.5746227,-0.02275162,-0.3629655,0.3592921,0.8517241
0.855696202,-0.6739526,-0.5746227,-0.1449047,-0.3644207,0.3568562,0.8512287
0.858205319,-0.7972724,-0.5146517,-0.2059812,-0.3673444,0.3583056,0.8512658
0.860714913,-0.6122927,-0.3947096,-0.08382816,-0.3687581,0.352939,0.8555741
0.86322403,-0.7972724,-0.2747676,-0.08382816,-0.3663246,0.3485742,0.8535795
0.865733147,-0.7356125,-0.5746227,-0.02275162,-0.3668362,0.3524688,0.8516883
0.868242741,-0.5506328,-0.3947096,-0.2670578,-0.3629497,0.3573427,0.8531548
0.870751858,-0.5506328,-0.2147966,-0.2059812,-0.3648911,0.3568485,0.8536486
0.873261452,-0.4889729,-0.3347386,-0.02275162,-0.3638903,0.3490676,0.8540484
0.875770569,-0.5506328,-0.2747676,-0.08382816,-0.3644084,0.3529647,0.8511907
0.878280163,-0.3656531,-0.2747676,-0.02275162,-0.3638964,0.3510133,0.8540673
0.880789757,-0.5506328,-0.3947096,-0.02275162,-0.3677759,0.3500236,0.8555381
0.883299351,-0.6122927,-0.4546807,-0.02275162,-0.3682702,0.3514825,0.8550729
0.885808468,-0.427313,-0.2747676,-0.02275162,-0.3692144,0.3504966,0.8589368
0.888318062,-0.2423333,-0.3347386,0.03832492,-0.3644005,0.3515041,0.8516597
0.890827179,-0.1190135,-0.3347386,-0.02275162,-0.3643918,0.3558736,0.855085
0.893336296,0.004306266,-0.1548255,-0.08382816,-0.3653397,0.351974,0.8569876
0.89584589,0.189286,-0.09485453,-0.08382816,-0.3658183,0.3514835,0.8579531
0.898355007,-0.05735363,-0.2147966,-0.08382816,-0.3683154,0.3607309,0.8527468
0.900864601,-0.1190135,-0.2747676,0.03832492,-0.3658735,0.3587922,0.853192
0.903373718,0.1276261,-0.3347386,0.09940146,-0.3663396,0.3553818,0.8546123
0.905883312,0.1276261,-0.2747676,0.3437076,-0.3663743,0.3602535,0.8517603
0.90839243,0.189286,-0.3347386,0.09940146,-0.3653678,0.3578148,0.8555948
0.910901547,0.004306266,-0.1548255,0.160478,-0.3634356,0.3612277,0.8551294
0.913411617,-0.05735363,-0.1548255,0.09940146,-0.3693135,0.3655956,0.8513522
0.915921211,0.004306266,0.02508752,-0.02275162,-0.3702577,0.3646097,0.8552161
0.918430329,0.004306266,-0.09485453,-0.02275162,-0.3687713,0.3612036,0.8575876
0.920939446,0.06596617,0.08505853,-0.08382816,-0.3653727,0.3573308,0.8546236
0.92344904,-0.05735363,0.08505853,-0.1449047,-0.3668444,0.3621891,0.8551657
0.925958157,-0.2423333,-0.0348835,0.03832492,-0.3649177,0.3612312,0.8517583
0.928467751,-0.05735363,-0.0348835,-0.2059812,-0.3634444,0.3568583,0.8517042
0.930976868,-0.2423333,0.08505853,-0.3281343,-0.3620035,0.3607571,0.8507642
0.933486462,-0.2423333,0.02508752,-0.3892109,-0.3678484,0.3597681,0.8493509
0.935995579,-0.1806734,0.08505853,-0.3892109,-0.3649312,0.3573494,0.8478546
0.938504696,-0.1806734,0.02508752,-0.2670578,-0.3610323,0.3593035,0.8497759
0.941014767,-0.1190135,0.08505853,-0.3892109,-0.362449,0.3558814,0.8545864
0.943524361,0.004306266,-0.0348835,-0.3892109,-0.3644366,0.3578339,0.8493052
0.946033478,-0.05735363,0.08505853,-0.2670578,-0.3653828,0.3544195,0.8516958
0.948542595,-0.1806734,0.2050006,-0.3281343,-0.3663727,0.359767,0.8517556
0.951052189,-0.1190135,0.1450296,-0.2670578,-0.365398,0.3602555,0.8522359
0.953561306,-0.05735363,0.02508752,-0.2059812,-0.3639358,0.3563726,0.8507369
0.9560709,-0.2423333,-0.1548255,-0.3281343,-0.3649006,0.3578238,0.8526916
0.958580017,-0.1806734,-0.09485453,-0.1449047,-0.367833,0.3549038,0.8493035
0.961089611,-0.1190135,0.2050006,-0.4502874,-0.361034,0.3588183,0.8492879
0.963598728,-0.05735363,-0.0348835,-0.3892109,-0.3668414,0.3602445,0.8546635
0.966107846,-0.1806734,-0.09485453,-0.3892109,-0.3687944,0.3573254,0.8522342
0.968617439,-0.3656531,-0.09485453,-0.4502874,-0.3653732,0.3544159,0.8531455
0.97112751,-0.2423333,-0.1548255,-0.3281343,-0.3673278,0.3612145,0.85516
0.973636627,-0.2423333,-0.2147966,-0.1449047,-0.3658305,0.355375,0.857991
0.976145745,-0.2423333,0.08505853,-0.3281343,-0.3638973,0.3553864,0.8560428
0.978655339,-0.1806734,0.1450296,-0.3281343,-0.3668447,0.3602457,0.8541803
0.981164456,-0.2423333,0.08505853,-0.2670578,-0.3658623,0.3583021,0.8546368
0.98367405,-0.05735363,0.08505853,-0.3892109,-0.3658451,0.3548946,0.8555701
0.986183167,-0.2423333,0.08505853,-0.2670578,-0.3653781,0.3539318,0.8521743
0.98869276,-0.1806734,-0.0348835,-0.3281343,-0.3644159,0.3563685,0.8517071
0.991201878,0.004306266,0.08505853,-0.2670578,-0.3614592,0.3495622,0.8540339
0.993710995,0.004306266,-0.0348835,-0.1449047,-0.3624232,0.3558717,0.8584522
0.996220589,-0.1190135,0.1450296,-0.1449047,-0.3663235,0.3553758,0.8570284
0.998730659,-0.1806734,0.1450296,-0.3281343,-0.3648372,0.3509979,0.8589072
1.001239777,0.1276261,0.3249426,-0.3281343,-0.3614535,0.3549045,0.8574687
1.003748894,0.189286,0.4448847,-0.1449047,-0.3648815,0.3558732,0.8546056
1.006258488,0.1276261,0.3249426,-0.3281343,-0.368782,0.3544056,0.852689
1.008767605,0.1276261,0.4448847,-0.2670578,-0.3673187,0.3573242,0.8546389
1.011277199,0.2509459,0.2649716,-0.02275162,-0.3658591,0.3583009,0.8551201
1.013786316,0.1276261,0.3849136,-0.1449047,-0.3629391,0.352966,0.8526289
1.01629591,0.3126058,0.5648267,-0.3281343,-0.3600041,0.3519981,0.8545294
1.018805027,0.4359255,0.6247977,-0.2059812,-0.3668008,0.3524555,0.8570038
1.021314144,0.5592454,0.8047107,-0.2059812,-0.3663694,0.3505344,0.8477997
1.023823738,0.4359255,0.5648267,-0.3281343,-0.3634387,0.3519975,0.8502071
1.026332855,0.4975855,0.5048557,-0.2059812,-0.3663706,0.3529642,0.8487898
1.028842926,0.4975855,0.5648267,-0.1449047,-0.3644337,0.3558894,0.848803
1.031352043,0.6825652,0.6247977,-0.1449047,-0.3644303,0.3568598,0.849779
1.033861637,0.5592454,0.6847687,-0.08382816,-0.3648665,0.3490655,0.8535728
1.036370754,0.6209053,0.6247977,-0.02275162,-0.3673168,0.3495498,0.8511805
1.038880348,0.6825652,0.5648267,-0.1449047,-0.3683087,0.3524687,0.8497669
1.041389465,0.3742657,0.7447398,-0.08382816,-0.3653685,0.3529565,0.8531313
1.043899059,0.5592454,0.7447398,-0.08382816,-0.365358,0.3587829,0.8575372
1.046408176,0.5592454,0.3849136,-0.2670578,-0.367843,0.3631671,0.8518002
1.048917294,0.4975855,0.6247977,-0.1449047,-0.3688231,0.3592796,0.8488705
1.051426888,0.3126058,0.6847687,-0.02275162,-0.3673355,0.3636467,0.8551837
1.053936005,0.3126058,0.3849136,-0.2059812,-0.3668845,0.36269,0.8493716
1.056445599,0.2509459,0.2649716,-0.08382816,-0.3624853,0.3602678,0.8512465
1.058955193,0.1276261,0.5648267,-0.1449047,-0.363485,0.3646473,0.8493638
1.061464787,0.06596617,0.4448847,-0.3892109,-0.3619928,0.357352,0.850731
1.063973904,0.004306266,0.5648267,-0.3892109,-0.3624997,0.3607591,0.8493183
1.066483498,-0.05735363,0.5048557,-0.2670578,-0.3688211,0.3617082,0.850344
1.068992615,-0.1806734,0.4448847,-0.4502874,-0.3673408,0.3602477,0.8527344
1.076520443,-0.3039932,0.4448847,-0.2059812,-0.3659045,0.3665776,0.8523013
1.079030037,-0.427313,0.3249426,-0.4502874,-0.3669212,0.3651331,0.8450463
1.081540108,-0.6739526,0.3849136,-0.4502874,-0.3654432,0.3695039,0.8499098
1.084048748,-0.7356125,0.4448847,-0.5113639,-0.3693116,0.3670525,0.8523328
1.086558342,-0.6739526,0.5048557,-0.5724405,-0.3673756,0.3641477,0.8493897
1.089067936,-0.9205922,0.3849136,-0.633517,-0.365444,0.3646456,0.8474463
1.091577053,-0.8589323,0.02508752,-0.5724405,-0.369282,0.3607252,0.8537209
1.094086647,-0.7356125,0.2649716,-0.5113639,-0.3697729,0.3641261,0.8547243
1.096595764,-0.9822521,0.5048557,-0.5724405,-0.3678445,0.3636535,0.8518049
1.099105358,-0.9205922,0.2649716,-0.633517,-0.3624819,0.3612382,0.8522224
1.101614475,-0.9822521,0.2050006,-0.633517,-0.3639368,0.359774,0.8522196
1.104123592,-1.105572,0.2649716,-0.8778232,-0.3649199,0.357831,0.8497922
1.106633186,-1.043912,0.1450296,-0.6945935,-0.3682725,0.3573137,0.8575459
1.109142303,-1.043912,0.08505853,-0.7556701,-0.3672962,0.3573158,0.8580214
1.111651897,-1.043912,0.2050006,-0.8778232,-0.368794,0.3602404,0.8537123
1.114161015,-1.043912,0.1450296,-0.8167467,-0.3673206,0.3558674,0.8536582
1.116671085,-1.043912,0.08505853,-0.7556701,-0.3654023,0.3534551,0.8483037
1.119180203,-0.9822521,0.2649716,-0.9388998,-0.3663225,0.3519743,0.8555455
1.121689796,-1.043912,0.2649716,-0.8778232,-0.3682668,0.352453,0.8560488
1.124198914,-1.043912,0.4448847,-0.633517,-0.3692405,0.3485631,0.8540857
1.126708508,-0.8589323,0.08505853,-0.5724405,-0.3673134,0.3505202,0.8521564
1.129217625,-0.6739526,0.08505853,-0.5724405,-0.3653988,0.3451941,0.8448406
1.131726742,-0.6122927,0.2649716,-0.5724405,-0.3668028,0.3500269,0.8555304
1.134236336,-0.7356125,0.3249426,-0.5724405,-0.367288,0.3485672,0.8550368
1.136745453,-0.5506328,0.08505853,-0.5113639,-0.3672909,0.3505117,0.855539
1.139255047,-0.3039932,0.08505853,-0.4502874,-0.3692548,0.350026,0.8526502
1.141764164,-0.2423333,0.4448847,-0.5724405,-0.3741201,0.3490379,0.8521957
1.144274235,-0.1190135,0.3249426,-0.6945935,-0.3721914,0.3514803,0.8507545
1.146783352,-0.1806734,0.2649716,-0.3892109,-0.371727,0.3544054,0.8488461
1.149292946,-0.1190135,0.1450296,-0.1449047,-0.3682877,0.3529467,0.8531542
1.151802063,-0.1806734,0.1450296,-0.2059812,-0.3692436,0.3495359,0.8540952
1.154311657,-0.3039932,0.08505853,-0.3281343,-0.3707284,0.3524556,0.8517189
1.156820774,-0.4889729,0.08505853,-0.2670578,-0.3736215,0.3543794,0.8565931
1.159329891,-0.3039932,-0.0348835,-0.2670578,-0.3731527,0.3539019,0.8536851
1.161839485,-0.3656531,0.08505853,-0.2670578,-0.3678275,0.3592744,0.8522455
1.164348602,-0.3039932,0.2649716,-0.08382816,-0.3663895,0.3558864,0.8473686
1.166858196,-0.3656531,0.1450296,-0.1449047,-0.3688231,0.3592796,0.8488705
1.169367313,-0.427313,0.1450296,-0.2670578,-0.3673451,0.3636504,0.853734
1.171876431,-0.7972724,-0.0348835,-0.3892109,-0.3668715,0.3636568,0.8517973
1.174386501,-0.6739526,0.08505853,-0.4502874,-0.3659066,0.3631773,0.8503352
1.176896095,-0.6122927,-0.09485453,-0.3281343,-0.3654061,0.3597727,0.8507815
1.179405212,-0.7356125,-0.0348835,-0.3281343,-0.3634658,0.3636684,0.8517705
1.181914806,-0.8589323,-0.0348835,-0.4502874,-0.3668465,0.3587888,0.8531996
1.184423924,-0.8589323,-0.09485453,-0.4502874,-0.3663391,0.3582968,0.8560904
1.186933041,-0.8589323,-0.0348835,-0.5113639,-0.3658549,0.3539266,0.8536278
1.189442635,-0.9205922,-0.0348835,-0.3892109,-0.3643972,0.3524746,0.8526356
1.191951752,-0.9822521,-0.0348835,-0.3892109,-0.366856,0.3597641,0.8522426
1.194461346,-1.167232,0.02508752,-0.5724405,-0.367301,0.3578034,0.8575429
1.196970463,-1.167232,-0.09485453,-0.5113639,-0.3673415,0.3563611,0.8507636
1.19947958,-1.228892,0.08505853,-0.5724405,-0.3658755,0.3563636,0.8517186
1.201989174,-1.043912,0.08505853,-0.4502874,-0.363939,0.3563738,0.8502536
1.204499245,-0.8589323,0.02508752,-0.5113639,-0.3649093,0.3534543,0.8492663
1.207008362,-0.8589323,-0.0348835,-0.4502874,-0.3692209,0.3504991,0.8579704
1.209517956,-0.9822521,-0.0348835,-0.633517,-0.3677597,0.3500176,0.8579542
1.212027073,-1.043912,0.1450296,-0.5724405,-0.3682889,0.3553765,0.8541443
1.21453619,-0.9205922,-0.2147966,-0.5724405,-0.3649006,0.3578238,0.8526916
1.217045784,-0.8589323,0.08505853,-0.633517,-0.3663552,0.3583029,0.8536743
1.219554901,-0.7972724,0.2649716,-0.5724405,-0.3697163,0.3553594,0.858988
1.222064495,-0.7356125,0.2050006,-0.5724405,-0.3653574,0.3524665,0.8545762
1.224573612,-0.9205922,0.2649716,-0.5113639,-0.365402,0.3553984,0.8492891
1.227082729,-0.7972724,0.3249426,-0.633517,-0.3677881,0.3539152,0.855576
1.229592323,-0.7972724,0.08505853,-0.3892109,-0.3692716,0.3553768,0.8527023
1.232102394,-0.6122927,0.08505853,-0.5113639,-0.3648512,0.3544042,0.8584571
1.234611511,-0.6122927,0.1450296,-0.6945935,-0.3629217,0.3515018,0.8545476
1.237121105,-0.7356125,0.08505853,-0.4502874,-0.36924,0.351478,0.8555638
1.239630222,-0.7356125,0.2649716,-0.633517,-0.36875,0.3534218,0.8570285
1.24213934,-0.7972724,0.2649716,-0.5113639,-0.3678188,0.3534408,0.850739
1.244648933,-0.6122927,0.2050006,-0.3892109,-0.3653768,0.3515021,0.8511842
1.247158051,-0.6122927,0.1450296,-0.5724405,-0.3663526,0.354415,0.8521867
1.249667645,-0.6739526,-0.0348835,-0.4502874,-0.3697454,0.3543986,0.8541464
1.249667645,-0.6739526,-0.0348835,-0.4502874,-0.3697454,0.3543986,0.8541464
1.254686832,-0.6122927,0.2649716,-0.3892109,-0.3663613,0.3510172,0.8492541
1.254686832,-0.6122927,0.2649716,-0.3892109,-0.3663613,0.3510172,0.8492541
1.25970459,-0.8589323,-0.09485453,-0.3892109,-0.3668486,0.3553886,0.8512335
1.25970459,-0.8589323,-0.09485453,-0.3892109,-0.3668486,0.3553886,0.8512335
1.262214661,-0.7972724,0.02508752,-0.5113639,-0.3624674,0.3515156,0.8497115
1.264724255,-0.7972724,-0.0348835,-0.5724405,-0.3668407,0.3548998,0.8521952
1.267233372,-0.9205922,-0.1548255,-0.3281343,-0.3682753,0.3500268,0.853609
1.269742489,-0.8589323,-0.2747676,-0.3892109,-0.3673209,0.3539241,0.8526728
1.272252083,-0.8589323,-0.1548255,-0.3892109,-0.3682846,0.3519738,0.8531448
1.2747612,-0.8589323,0.02508752,-0.4502874,-0.3644084,0.3529647,0.8511907
1.277270794,-1.105572,0.08505853,-0.5724405,-0.3682461,0.3509876,0.8584507
1.279779911,-1.043912,-0.2747676,-0.5113639,-0.3692065,0.3500078,0.8598986
1.282289028,-0.9205922,-0.1548255,-0.3892109,-0.3639263,0.3553973,0.8516938
1.284798622,-0.8589323,-0.1548255,-0.5113639,-0.3663418,0.3519816,0.8526462
1.287307739,-0.8589323,-0.0348835,-0.5113639,-0.3653963,0.3505377,0.8477921
1.289817333,-0.8589323,-0.0348835,-0.4502874,-0.3663241,0.3514891,0.8550576
1.292327404,-0.7972724,0.1450296,-0.5113639,-0.3682604,0.3524505,0.8570153
1.294836521,-0.5506328,0.08505853,-0.5113639,-0.3677803,0.3524546,0.8560449
1.297345638,-0.7356125,0.02508752,-0.3281343,-0.3673286,0.3563562,0.8526965
1.299855232,-0.7356125,-0.09485453,-0.4502874,-0.3614935,0.3563772,0.8521674
1.302364349,-0.5506328,-0.09485453,-0.5113639,-0.3634238,0.3544213,0.8536134
1.304873943,-0.6122927,0.1450296,-0.3892109,-0.3634112,0.3524731,0.8545609
1.307383061,-0.6122927,0.02508752,-0.3281343,-0.3687523,0.3490499,0.8545698
1.309892178,-0.7356125,0.08505853,-0.5113639,-0.3697367,0.348565,0.8526398
1.312401772,-0.4889729,0.2050006,-0.633517,-0.3658565,0.354413,0.8536326
1.314910889,-0.4889729,0.02508752,-0.3281343,-0.3668478,0.3510155,0.8492579
1.317420483,-0.3656531,0.1450296,-0.4502874,-0.366822,0.3510059,0.8531238
1.319930554,-0.427313,0.1450296,-0.5113639,-0.3643728,0.353923,0.8569989
1.322439671,-0.427313,0.1450296,-0.3892109,-0.3677686,0.3548795,0.858968
1.324948788,-0.6122927,0.2649716,-0.4502874,-0.3663512,0.3529569,0.8516892
1.327458382,-0.4889729,0.2649716,-0.633517,-0.366827,0.3495502,0.8516599
1.329967499,-0.3039932,0.2050006,-0.3892109,-0.3687515,0.3539082,0.8570333
1.332477093,-0.427313,0.08505853,-0.3281343,-0.3677906,0.3485716,0.8526245
1.33498621,-0.427313,-0.0348835,-0.4502874,-0.3677975,0.345659,0.85018
1.337495327,-0.2423333,0.02508752,-0.3281343,-0.3736019,0.3461124,0.8555461
1.340004921,-0.1806734,0.1450296,-0.3892109,-0.3672895,0.3490537,0.8550416
1.342514038,-0.3656531,0.08505853,-0.08382816,-0.3692365,0.3534201,0.8570324
1.345023632,-0.3656531,0.1450296,-0.2059812,-0.3682612,0.3475922,0.8545518
1.347532749,-0.3039932,0.08505853,-0.3892109,-0.3673195,0.3524659,0.8521754
1.35004282,-0.3656531,0.08505853,-0.3892109,-0.3692563,0.3505124,0.8526549
1.352551937,-0.2423333,0.2649716,-0.2670578,-0.3687702,0.3475991,0.851173
1.355061531,-0.427313,0.2050006,-0.1449047,-0.3692626,0.3514865,0.8521812
1.357570648,-0.3656531,-0.0348835,-0.2059812,-0.3687688,0.356344,0.8556073
1.360080242,-0.3039932,0.02508752,-0.2670578,-0.3702526,0.3558623,0.8517482
1.362589359,-0.3656531,0.02508752,-0.1449047,-0.3682875,0.3539184,0.8536469
1.365098476,-0.4889729,-0.09485453,-0.08382816,-0.3668374,0.3548986,0.8526784
1.36760807,-0.6739526,-0.0348835,-0.1449047,-0.3688045,0.3553857,0.8497991
1.370117188,-0.5506328,-0.2147966,-0.2059812,-0.367809,0.3544089,0.8526813
1.372626782,-0.6122927,-0.0348835,-0.3892109,-0.3639171,0.3524787,0.8516654
1.375135899,-0.6122927,-0.09485453,-0.1449047,-0.3668391,0.3544133,0.8521905
1.377645969,-0.7356125,-0.2147966,-0.02275162,-0.364911,0.3529691,0.8487784
1.380155087,-0.6739526,-0.2147966,-0.2670578,-0.3619497,0.3549065,0.8560228
1.382664681,-0.6122927,-0.09485453,-0.3892109,-0.3673297,0.3495546,0.8492475
1.385173798,-0.7356125,-0.1548255,-0.3892109,-0.3702672,0.355382,0.8493273
1.387683392,-0.6739526,-0.2747676,-0.3892109,-0.3668433,0.3587877,0.8536828
1.390192509,-0.7972724,-0.2147966,-0.2059812,-0.3659026,0.3578314,0.8483502
1.392701626,-0.9205922,-0.2147966,-0.3892109,-0.3717326,0.3592661,0.8503432
1.39521122,-0.9822521,-0.2747676,-0.3892109,-0.3672974,0.3495425,0.8540798
1.397720337,-0.9205922,-0.2147966,-0.3892109,-0.3658505,0.3514956,0.8531209
1.400229931,-0.9205922,-0.3947096,-0.2670578,-0.3677804,0.351483,0.8555523
1.402739048,-0.8589323,-0.3347386,-0.5113639,-0.3697074,0.3504974,0.8579742
1.405248642,-0.9205922,-0.4546807,-0.3892109,-0.3668188,0.3510047,0.853607
1.407758236,-0.9205922,-0.3347386,-0.3281343,-0.3643926,0.3510153,0.8526214
1.41026783,-0.9205922,-0.3947096,-0.2059812,-0.3658215,0.3514847,0.8574699
1.412776947,-0.9205922,-0.3347386,-0.2670578,-0.368724,0.3543838,0.861387
1.415286541,-0.9822521,-0.2147966,-0.4502874,-0.364915,0.358315,0.8507634
1.417795658,-0.9205922,-0.1548255,-0.3892109,-0.3658375,0.3524624,0.8555465
1.420304775,-0.8589323,0.08505853,-0.3892109,-0.3643995,0.3481027,0.8501769
1.422814369,-0.6122927,-0.09485453,-0.3281343,-0.3604347,0.3485745,0.8612652
1.425323486,-0.7356125,-0.1548255,-0.3892109,-0.3677453,0.3495263,0.8598824
1.42783308,-0.6739526,0.1450296,-0.4502874,-0.3682414,0.3504999,0.8589292
1.430342198,-0.6739526,0.02508752,-0.2670578,-0.3658115,0.3534244,0.859905
1.432851791,-0.4889729,0.3249426,-0.2670578,-0.3672988,0.3510006,0.8545773
1.435361385,-0.427313,0.1450296,-0.3892109,-0.3638895,0.3539259,0.8565119
1.437870979,-0.4889729,0.02508752,-0.4502874,-0.3633859,0.3495484,0.8569486
1.440380097,-0.4889729,0.1450296,-0.3892109,-0.364382,0.3466386,0.8520955
1.442889691,-0.3039932,0.3249426,-0.3281343,-0.3648803,0.3534434,0.8536154
1.445398808,-0.427313,0.3849136,-0.3892109,-0.358059,0.3554061,0.8559969
1.447907925,-0.5506328,0.2050006,-0.3281343,-0.3595109,0.352969,0.8559847
1.450417519,-0.3039932,0.4448847,-0.3892109,-0.3687744,0.3519734,0.8526653
1.452926636,-0.3656531,0.5048557,-0.3892109,-0.3668206,0.3495478,0.8526263
1.45543623,-0.3656531,0.3849136,-0.3281343,-0.3634125,0.3549028,0.855551
1.457945347,-0.427313,0.5048557,-0.4502874,-0.3653866,0.3607371,0.8541735
1.460454941,-0.4889729,0.5648267,-0.2670578,-0.3653952,0.3573393,0.851241
1.462964535,-0.3656531,0.3849136,-0.3281343,-0.3634454,0.3602597,0.8531871
1.465474129,-0.4889729,0.5048557,-0.5724405,-0.363428,0.3587956,0.8551057
1.467983246,-0.3656531,0.6847687,-0.633517,-0.3668512,0.3592765,0.8527211
1.47049284,-0.4889729,0.6247977,-0.3892109,-0.368771,0.3529438,0.8536413
1.473001957,-0.6122927,0.6247977,-0.4502874,-0.3716823,0.3514735,0.8541332
1.475511074,-0.4889729,0.2050006,-0.5724405,-0.3716843,0.3490449,0.8526598
1.478020668,-0.5506328,0.3849136,-0.3892109,-0.3697094,0.3480689,0.8565009
1.480529785,-0.6122927,0.5648267,-0.3281343,-0.3687665,0.3505128,0.8531344
1.483039379,-0.4889729,0.5648267,-0.5724405,-0.3677949,0.3519742,0.8536242
1.485548496,-0.3656531,0.7447398,-0.5724405,-0.3673183,0.3500362,0.8511853
1.48805809,-0.427313,0.6247977,-0.5113639,-0.3702611,0.3534362,0.8493084
1.490567207,-0.1806734,0.5648267,-0.3281343,-0.3692241,0.3505003,0.8574872
1.493077278,-0.2423333,0.6847687,-0.3892109,-0.3682432,0.3490431,0.8579485
1.495586395,-0.1190135,0.7447398,-0.4502874,-0.3677789,0.3509965,0.8555475
1.498095989,-0.1190135,0.8646818,-0.3281343,-0.3648825,0.3500432,0.8516493
1.500605106,-0.05735363,0.7447398,-0.4502874,-0.3687607,0.3466238,0.85213
1.503114224,-0.05735363,0.6847687,-0.4502874,-0.370664,0.3422284,0.8564517
1.505623818,0.004306266,0.6847687,-0.4502874,-0.3682805,0.3475995,0.8516524
1.508132935,0.004306266,0.5048557,-0.3281343,-0.3672979,0.3466275,0.8526017
1.510642529,-0.1190135,0.6247977,-0.4502874,-0.3668033,0.3471119,0.8540524
1.513151646,-0.05735363,0.5648267,-0.3281343,-0.3658365,0.3480893,0.8535709
1.51566124,0.004306266,0.7447398,-0.3892109,-0.3629097,0.345667,0.8535243
1.518170834,0.1276261,1.044595,-0.3892109,-0.363868,0.3471158,0.8564456
1.520680428,0.06596617,0.8047107,-0.4502874,-0.3673176,0.3446914,0.8487169
1.523189545,0.004306266,0.6247977,-0.3281343,-0.3663091,0.3446814,0.8540248
1.525699139,0.06596617,0.6247977,-0.4502874,-0.3672425,0.3402905,0.8578556
1.528208256,0.3126058,0.5648267,-0.3892109,-0.3706752,0.3427185,0.8550067
1.530717373,0.3742657,0.6247977,-0.2059812,-0.3696769,0.339797,0.8573868
1.533226967,0.2509459,0.5648267,-0.08382816,-0.3702129,0.3422433,0.8511324
1.535736084,0.4359255,0.4448847,-0.08382816,-0.3682521,0.343702,0.8540307
1.538245678,0.3742657,0.5648267,-0.2059812,-0.3648578,0.3432319,0.8520662
1.540754795,0.4359255,0.3849136,-0.08382816,-0.3677685,0.3456481,0.854529
1.543264389,0.4359255,0.6247977,-0.1449047,-0.3716589,0.3470919,0.8555402
1.545773506,0.3742657,0.2649716,-0.02275162,-0.3707094,0.3505051,0.8536329
1.548282623,0.5592454,0.3849136,-0.02275162,-0.366827,0.3495502,0.8516599
1.550792694,0.4975855,0.3849136,-0.08382816,-0.3687877,0.3490632,0.8492543
1.553302288,0.3126058,0.5648267,-0.1449047,-0.3668318,0.3500378,0.8511814
1.555811405,0.3126058,0.7447398,-0.1449047,-0.3707076,0.3519619,0.8546135
1.558320522,0.4359255,0.2649716,-0.08382816,-0.371695,0.35245,0.852693
1.560830116,0.4975855,0.3249426,-0.08382816,-0.3658568,0.3524697,0.8526471
1.563339234,0.4975855,0.2050006,0.03832492,-0.3677774,0.3505101,0.8555428
1.565848827,0.4359255,0.2649716,-0.02275162,-0.3668267,0.3514935,0.8526453
1.568357945,0.4975855,0.3249426,-0.08382816,-0.364411,0.3568525,0.8526783
1.570867539,0.4359255,0.2050006,-0.1449047,-0.3658695,0.3534462,0.851207
1.573376656,0.3126058,0.1450296,-0.02275162,-0.3702265,0.357796,0.8565995
1.575885773,0.3126058,-0.0348835,0.09940146,-0.3697338,0.3568235,0.8570694
1.578395844,0.3742657,0.1450296,-0.02275162,-0.3693,0.3592744,0.8503241
1.580905438,0.1276261,0.2649716,-0.08382816,-0.3663448,0.3529545,0.8526556
1.583414555,0.189286,0.3849136,-0.2670578,-0.3663253,0.3539189,0.8560477
1.585923672,0.189286,0.08505853,-0.08382816,-0.3687753,0.3563465,0.8546408
1.588433266,0.189286,0.02508752,-0.2059812,-0.3677975,0.3558621,0.8551117
1.590942383,0.1276261,0.2649716,-0.3281343,-0.3682719,0.3509973,0.8545849
1.593451977,0.189286,0.3849136,-0.2059812,-0.3653975,0.3529674,0.8487822
1.595961094,0.2509459,0.08505853,-0.2670578,-0.3653796,0.3544183,0.852179
1.598470688,0.189286,-0.09485453,-0.3281343,-0.3707233,0.3539113,0.8531829
1.600979805,-0.05735363,0.02508752,-0.3892109,-0.3697669,0.3510057,0.8492808
1.603488922,-0.1190135,0.1450296,-0.2670578,-0.3702282,0.3573107,0.8561115
1.605998516,-0.1190135,0.02508752,-0.2670578,-0.370257,0.3582933,0.8522552
1.608508587,-0.1190135,0.02508752,-0.2670578,-0.3668697,0.3549107,0.8478462
1.611017704,-0.2423333,0.02508752,-0.3281343,-0.370272,0.3558696,0.8488488
1.613526821,-0.3039932,0.02508752,-0.3281343,-0.3746105,0.3553539,0.8546773
1.616036415,-0.2423333,0.02508752,-0.1449047,-0.373165,0.3577934,0.853723
1.618545532,-0.2423333,-0.0348835,-0.2670578,-0.3687968,0.3529535,0.8497754
1.621055126,-0.1806734,-0.1548255,-0.2059812,-0.3697374,0.3539098,0.855108
1.623564243,-0.427313,-0.1548255,-0.08382816,-0.374566,0.3514503,0.8594716
1.626073837,-0.6122927,-0.2147966,-0.2059812,-0.3721739,0.3500161,0.8526731
1.628582955,-0.6122927,-0.2147966,-0.2059812,-0.3678127,0.3514951,0.85072
1.631092072,-0.6122927,-0.0348835,-0.3892109,-0.3682895,0.3514898,0.8521735
1.633601666,-0.6122927,-0.1548255,-0.2670578,-0.3697063,0.347096,0.8564914
1.636111736,-0.4889729,-0.1548255,-0.2670578,-0.3673036,0.3514882,0.8540988
1.638620854,-0.4889729,-0.09485453,-0.2059812,-0.3678145,0.3500382,0.8497394
1.641129971,-0.4889729,0.08505853,-0.1449047,-0.3663103,0.3471112,0.8550149
1.643639565,-0.3656531,-0.09485453,-0.2059812,-0.3648113,0.3417568,0.8583339
1.646148682,-0.2423333,-0.0348835,-0.1449047,-0.3667871,0.3471059,0.8564685
1.648658276,-0.3039932,0.08505853,-0.08382816,-0.370644,0.3461078,0.8613218
1.651167393,-0.1806734,0.02508752,-0.08382816,-0.3662786,0.3441841,0.8583691
1.653676987,-0.1806734,-0.09485453,-0.1449047,-0.3667698,0.3446701,0.8578944
1.656186104,-0.1190135,-0.0348835,-0.1449047,-0.3658302,0.3471152,0.8540447
1.658695221,-0.05735363,-0.0348835,-0.1449047,-0.3677812,0.3466246,0.8530888
1.661204815,0.1276261,0.1450296,-0.1449047,-0.3658123,0.3485661,0.8574415
1.663714886,0.189286,-0.0348835,-0.08382816,-0.3667973,0.3441945,0.8535407
1.666224003,0.06596617,-0.0348835,-0.02275162,-0.3687348,0.3475858,0.8564885
1.66873312,0.1276261,-0.0348835,-0.08382816,-0.3696778,0.3441701,0.8593624
1.671242714,0.189286,-0.09485453,-0.1449047,-0.3673083,0.3519759,0.8536204
1.673751831,0.2509459,0.08505853,-0.08382816,-0.3687862,0.3485768,0.8492495
1.676261425,0.3742657,0.08505853,0.03832492,-0.3673036,0.3412852,0.849167
1.678770542,0.3742657,0.02508752,-0.02275162,-0.3673261,0.3514967,0.8507162
1.681280136,0.3742657,-0.2147966,0.09940146,-0.3702072,0.3577887,0.8594988
1.683789253,0.3742657,-0.0348835,0.09940146,-0.370194,0.3597272,0.862417
1.686298371,0.189286,0.08505853,0.09940146,-0.3668151,0.3539184,0.8555683
1.688807964,0.2509459,-0.09485453,0.2215545,-0.3673216,0.3500374,0.850702
1.691318035,0.2509459,0.02508752,0.03832492,-0.368798,0.3553833,0.8507656
1.693827152,0.06596617,0.02508752,-0.02275162,-0.3673159,0.3553797,0.8541367
1.69633627,0.06596617,-0.09485453,-0.08382816,-0.3717228,0.3602341,0.8522856
1.698845864,0.06596617,-0.0348835,0.03832492,-0.3692871,0.3592695,0.852257
1.701354981,-0.1806734,-0.1548255,-0.02275162,-0.3688106,0.3573315,0.8498181
1.703864575,-0.1190135,-0.1548255,-0.2059812,-0.3712381,0.3587789,0.8513011
1.706373692,-0.3656531,-0.1548255,-0.08382816,-0.3682837,0.3578038,0.8561009
1.708883286,-0.3039932,-0.09485453,-0.08382816,-0.3678396,0.3641376,0.8527761
1.711392403,-0.1806734,-0.2147966,-0.1449047,-0.3693129,0.3592792,0.8483911
1.71390152,-0.3656531,-0.2747676,-0.08382816,-0.366879,0.3568576,0.8473819
1.716411114,-0.4889729,-0.2747676,-0.08382816,-0.3702445,0.3563451,0.8532027
1.718921185,-0.6122927,-0.3947096,-0.1449047,-0.3692641,0.3519729,0.8521859
1.721430302,-0.5506328,-0.2747676,-0.2670578,-0.3687707,0.3548872,0.8546267
1.723939419,-0.427313,-0.2747676,-0.2670578,-0.3682616,0.3548803,0.8580054
1.726449013,-0.3039932,-0.3347386,-0.08382816,-0.3702509,0.3563476,0.8522362
1.72895813,-0.5506328,-0.2147966,-0.2670578,-0.3692626,0.3514865,0.8521812
1.731467724,-0.6122927,-0.1548255,-0.2670578,-0.3736273,0.3480654,0.8526657
1.733976841,-0.5506328,-0.1548255,-0.1449047,-0.3702273,0.3529377,0.8541359
1.736486435,-0.5506328,-0.2747676,-0.2670578,-0.3629298,0.351019,0.8530932
1.738995552,-0.6739526,-0.3947096,-0.02275162,-0.3692298,0.345158,0.8540525
1.741504669,-0.6122927,-0.2147966,-0.02275162,-0.3706858,0.3470952,0.8555326
1.74401474,-0.427313,-0.2747676,-0.08382816,-0.3716797,0.3475856,0.8526456
1.74652338,-0.3039932,-0.3347386,-0.1449047,-0.3712082,0.3441918,0.8487428
1.749033451,-0.3039932,-0.3347386,-0.02275162,-0.3701928,0.3470944,0.8564953
1.751542568,-0.3039932,-0.3347386,0.09940146,-0.3678053,0.3471196,0.8497109
1.754052162,-0.2423333,-0.3347386,0.09940146,-0.3648641,0.3442059,0.8515925
1.756561279,-0.05735363,-0.09485453,-0.08382816,-0.366802,0.3446822,0.8530622
1.759070873,-0.1806734,0.02508752,-0.02275162,-0.3672401,0.345634,0.8608071
1.761579991,-0.1806734,-0.2747676,0.3437076,-0.3696904,0.3461183,0.8584148
1.764089585,-0.1190135,-0.3947096,0.160478,-0.3673103,0.3495473,0.8521469
1.766598702,-0.1806734,-0.2747676,-0.02275162,-0.3663053,0.3485669,0.8564789
1.769107819,-0.1806734,-0.2747676,0.03832492,-0.3662953,0.3505065,0.8589139
1.771617413,0.004306266,-0.1548255,-0.02275162,-0.3629037,0.3529527,0.8579444
1.77412653,-0.05735363,-0.2747676,0.2215545,-0.3624109,0.3519802,0.8584143
1.776636124,0.06596617,-0.1548255,0.03832492,-0.3672858,0.3519674,0.8570029
1.779145718,0.189286,-0.0348835,0.03832492,-0.3677654,0.3446752,0.8545195
1.781655312,-0.05735363,-0.09485453,0.03832492,-0.3663387,0.3510087,0.8526367
1.784164429,-0.05735363,-0.1548255,0.09940146,-0.3678123,0.3534384,0.8517054
1.786674023,0.004306266,-0.3347386,0.09940146,-0.3648708,0.3524681,0.8545724
1.78918314,-0.05735363,-0.2147966,0.03832492,-0.3663399,0.3534385,0.8536269
1.791692734,-0.05735363,-0.1548255,0.2215545,-0.3677787,0.3519682,0.8560402
1.794201851,0.189286,-0.09485453,0.09940146,-0.3692578,0.3509989,0.8526596
1.796710968,0.004306266,-0.09485453,0.160478,-0.3678412,0.354421,0.8478491
1.799220562,-0.05735363,-0.0348835,0.03832492,-0.366356,0.3534445,0.8512108
1.801729679,0.004306266,-0.2747676,0.09940146,-0.3653285,0.3514839,0.8584325
1.80423975,0.004306266,-0.1548255,0.09940146,-0.3662938,0.3500201,0.8589091
1.806748867,-0.1190135,-0.1548255,0.03832492,-0.3663821,0.3515109,0.8463595
1.809258461,-0.1190135,0.02508752,-0.08382816,-0.363919,0.3510218,0.8506848
1.811767578,-0.1806734,-0.2147966,-0.2059812,-0.3629171,0.3500425,0.8545334
1.814277172,-0.1806734,0.02508752,-0.1449047,-0.3643811,0.3524686,0.8550518
1.816786289,-0.1806734,0.08505853,-0.08382816,-0.3653438,0.3563483,0.8584799
1.819295883,-0.3656531,0.02508752,-0.2059812,-0.3648527,0.3548906,0.8584619
1.821805,-0.3656531,-0.09485453,-0.08382816,-0.3634238,0.3544213,0.8536134
1.824314118,-0.2423333,0.02508752,-0.02275162,-0.3639186,0.3529651,0.8516701
1.826823712,-0.3039932,0.1450296,-0.08382816,-0.3682925,0.3534343,0.8526757
1.829332829,-0.2423333,0.02508752,-0.1449047,-0.368307,0.3529539,0.8502549
1.831842423,-0.3656531,0.02508752,-0.1449047,-0.3682922,0.3553777,0.8536611
1.834352017,-0.427313,0.02508752,-0.2670578,-0.3662759,0.3504992,0.8618132
1.836861611,-0.427313,-0.0348835,-0.2059812,-0.3682777,0.3548864,0.8555893
1.839370728,-0.4889729,0.02508752,-0.2670578,-0.3687503,0.3514785,0.8560432
1.841880322,-0.3039932,-0.0348835,-0.2670578,-0.3663005,0.3480792,0.8569573
1.844389439,-0.3039932,0.02508752,-0.3892109,-0.3658198,0.3519699,0.8579578
1.846899033,-0.4889729,0.02508752,-0.3281343,-0.3692078,0.3514659,0.860396
1.84940815,-0.4889729,-0.09485453,-0.3281343,-0.3677517,0.3495287,0.8589159
1.851917267,-0.3039932,-0.09485453,-0.2670578,-0.3658095,0.3456499,0.8564466
1.854426861,-0.3039932,-0.2747676,-0.2059812,-0.3707047,0.3500174,0.8541114
1.856935978,-0.3039932,0.02508752,-0.2670578,-0.3697523,0.3514861,0.8517018
1.859445572,-0.4889729,0.08505853,-0.1449047,-0.3653414,0.3514888,0.8564997
1.861955166,-0.4889729,-0.0348835,-0.4502874,-0.3692463,0.3524521,0.85509
1.86446476,-0.4889729,-0.2747676,-0.2670578,-0.3643932,0.3471286,0.8506507
1.866973877,-0.3656531,-0.0348835,-0.2670578,-0.3638987,0.3466414,0.8516085
1.869483471,-0.3656531,-0.0348835,-0.3281343,-0.3692081,0.3495226,0.8594106
1.871992588,-0.427313,0.02508752,-0.3892109,-0.3711761,0.3534111,0.8580141
1.874502182,-0.5506328,0.08505853,-0.2059812,-0.3682605,0.3514789,0.8565226
1.877011299,-0.4889729,0.02508752,-0.3281343,-0.3706691,0.3509758,0.8599195
1.879520416,-0.427313,0.2050006,-0.2059812,-0.3672849,0.3475943,0.8550273
1.88203001,-0.3039932,0.2050006,-0.08382816,-0.3687462,0.3471042,0.8545508
1.884539128,-0.3656531,0.02508752,-0.2059812,-0.3663165,0.349057,0.8550339
1.887049198,-0.3656531,-0.1548255,-0.2059812,-0.3624301,0.3529591,0.8560076
1.889558315,-0.6122927,0.02508752,-0.2059812,-0.3673642,0.3553979,0.8468883
1.892067909,-0.427313,0.02508752,0.03832492,-0.3678169,0.3548977,0.8517197
1.894577027,-0.3656531,-0.0348835,-0.1449047,-0.3672669,0.3490452,0.8584241
1.897086621,-0.3656531,-0.0348835,-0.2059812,-0.3658646,0.3539302,0.8521781
1.899595738,-0.427313,0.02508752,-0.2670578,-0.3677945,0.3539176,0.8546095
1.902105332,-0.4889729,-0.0348835,-0.3281343,-0.3687431,0.3461313,0.8545414
1.904614449,-0.3656531,0.08505853,-0.2059812,-0.3658462,0.3480929,0.8521212
1.907123566,-0.4889729,-0.09485453,-0.1449047,-0.3677858,0.3480839,0.853103
1.90963316,-0.5506328,0.1450296,-0.2670578,-0.3706585,0.346599,0.8593937
1.912142277,-0.6122927,-0.0348835,-0.1449047,-0.3663359,0.3480925,0.8516418
1.914651871,-0.427313,-0.0348835,-0.3281343,-0.3662956,0.3485633,0.8579285
1.917161465,-0.1806734,0.1450296,-0.2670578,-0.3672557,0.3485551,0.8598691
1.919671059,-0.2423333,-0.09485453,-0.1449047,-0.3677645,0.3505052,0.8574757
1.919671059,-0.2423333,-0.09485453,-0.1449047,-0.3677645,0.3505052,0.8574757
1.922180176,-0.3039932,-0.0348835,-0.2670578,-0.3677706,0.352451,0.8574947
1.92468977,-0.1806734,0.02508752,-0.08382816,-0.3682563,0.3480763,0.8555229
1.927198887,-0.1190135,0.08505853,-0.1449047,-0.3643837,0.3461533,0.8516076
1.929708481,-0.05735363,0.02508752,-0.2670578,-0.3663358,0.3490642,0.8521345
1.932217598,0.1276261,-0.0348835,-0.2670578,-0.3668063,0.3480848,0.8540618
1.934726715,0.06596617,0.1450296,-0.2670578,-0.3657936,0.3446721,0.85837
1.937236309,0.06596617,0.02508752,-0.1449047,-0.3653049,0.348074,0.8603323
1.939745426,0.1276261,0.3249426,-0.3281343,-0.3633737,0.3456569,0.8569107
1.94225502,0.1276261,0.08505853,-0.08382816,-0.3663185,0.3466284,0.8535606
1.944764614,0.2509459,0.2050006,0.09940146,-0.3658416,0.3466336,0.852107
1.947274208,0.2509459,0.08505853,-0.02275162,-0.3668194,0.347118,0.8516362
1.949783325,0.2509459,0.2649716,-0.2059812,-0.3614799,0.3510276,0.8516321
1.952292919,0.4359255,0.4448847,-0.1449047,-0.3643895,0.3500424,0.852612
1.954802037,0.4359255,0.3849136,-0.08382816,-0.3687724,0.3544019,0.8541387
1.95731163,0.3742657,0.3849136,-0.08382816,-0.3668244,0.3558654,0.855104
1.959820748,0.3742657,0.3249426,-0.2059812,-0.3663275,0.3505186,0.8540817
1.962329865,0.2509459,0.3849136,-0.08382816,-0.3682793,0.3553728,0.855594
1.964839459,0.3126058,0.3849136,0.09940146,-0.3658356,0.3539193,0.8565271
1.967348576,0.3126058,0.3249426,-0.1449047,-0.3692719,0.3534335,0.8517169
1.96985817,0.189286,0.2050006,-0.02275162,-0.3629546,0.3568587,0.8521836
1.972367287,0.2509459,0.3849136,-0.2059812,-0.3653728,0.3563592,0.8541309
1.974877358,0.3742657,0.2649716,-0.1449047,-0.368744,0.3505044,0.856517
1.977386475,0.189286,0.3249426,-0.2670578,-0.3658916,0.3563696,0.8493024
1.979896069,0.1276261,0.5048557,-0.2670578,-0.3668476,0.3519872,0.8497506
1.982405186,-0.1190135,0.5048557,-0.3281343,-0.3697608,0.3490599,0.8492619
1.98491478,-0.1190135,0.08505853,-0.2059812,-0.3668138,0.3514886,0.8545782
1.987423897,0.004306266,0.02508752,-0.3281343,-0.3648538,0.348089,0.855013
1.989933014,0.06596617,-0.0348835,-0.2059812,-0.3673321,0.3544141,0.8512279
1.992442608,-0.1806734,0.08505853,-0.2059812,-0.36731,0.3514906,0.8531324
1.994951725,-0.1806734,0.1450296,-0.2670578,-0.3644041,0.349562,0.8501911
2.004989624,-0.2423333,0.02508752,-0.2670578,-0.3682534,0.3461317,0.8550208
2.004989624,-0.2423333,0.02508752,-0.2670578,-0.3682534,0.3461317,0.8550208
2.007499218,-0.1190135,0.1450296,-0.4502874,-0.3678079,0.3510074,0.8511986
2.010008335,-0.1806734,-0.09485453,-0.3892109,-0.3673231,0.3505238,0.8507068
2.012517929,-0.2423333,0.08505853,-0.3281343,-0.3663465,0.3524692,0.8521677
2.015027046,-0.2423333,0.2649716,-0.3892109,-0.368275,0.3519702,0.8545944
2.017536163,-0.1806734,0.2649716,-0.3892109,-0.3653227,0.3475948,0.8574282
2.020045757,-0.1806734,0.08505853,-0.3892109,-0.3643829,0.3510117,0.8540711
2.022554874,-0.1190135,-0.0348835,-0.3892109,-0.368284,0.3558605,0.8551155
2.025064468,-0.05735363,0.2050006,-0.3892109,-0.3672842,0.351481,0.8569981
2.027573586,-0.1806734,0.1450296,-0.2670578,-0.3653339,0.3480849,0.8559832
2.030083656,-0.05735363,0.1450296,-0.3281343,-0.3687695,0.3524574,0.8536366
2.032592773,-0.05735363,0.3249426,-0.3281343,-0.3702195,0.3514771,0.854605
2.035102367,-0.05735363,0.2649716,-0.2670578,-0.3697043,0.3495246,0.8579648
2.037611485,-0.1806734,0.4448847,-0.2670578,-0.3706994,0.3524447,0.8560679
2.040121079,-0.1190135,0.2050006,-0.1449047,-0.3697687,0.3495488,0.8483002
2.042630196,-0.05735363,0.08505853,-0.3281343,-0.3697639,0.3500328,0.8492714
2.045139313,-0.1190135,-0.0348835,-0.4502874,-0.3653466,0.3490614,0.854543
2.047648907,-0.05735363,0.1450296,-0.3281343,-0.3702192,0.3534205,0.8555903
2.050158024,-0.05735363,0.3249426,-0.3281343,-0.3648822,0.3519865,0.8526347
2.052667618,-0.05735363,0.1450296,-0.3892109,-0.3648997,0.3534507,0.8507161
2.055176735,0.004306266,0.2050006,-0.3892109,-0.3697528,0.3485711,0.8502237
2.057686806,-0.1190135,0.2050006,-0.2670578,-0.3634221,0.3549065,0.8541014
2.060195923,-0.2423333,0.02508752,-0.4502874,-0.3629346,0.3515067,0.8526147
2.062705517,-0.1806734,0.08505853,-0.4502874,-0.3643498,0.3466265,0.8569278
2.065214634,-0.05735363,-0.0348835,-0.2670578,-0.364871,0.3514965,0.8540797
2.067724228,-0.05735363,0.08505853,-0.3892109,-0.3658652,0.3500435,0.8502073
2.070233345,-0.2423333,0.02508752,-0.4502874,-0.3643667,0.3519773,0.85698
2.072742462,-0.2423333,0.08505853,-0.5113639,-0.3653434,0.3490602,0.8550262
2.075252056,-0.1806734,-0.1548255,-0.3281343,-0.3687511,0.3466202,0.8535797
2.077761173,-0.05735363,0.3249426,-0.3892109,-0.361869,0.3456448,0.8636644
2.080270767,0.06596617,0.3249426,-0.3892109,-0.3692295,0.3471013,0.8550379
2.082779884,-0.1190135,0.3849136,-0.3892109,-0.3658635,0.3505287,0.8506953
2.085289955,0.06596617,0.3849136,-0.2670578,-0.3682529,0.3490467,0.8564989
2.087799072,0.06596617,0.2649716,-0.2670578,-0.3643467,0.3456536,0.8569183
2.090308666,-0.05735363,0.3849136,-0.2059812,-0.3648272,0.3427345,0.8564106
2.092817783,0.1276261,0.4448847,-0.2059812,-0.368241,0.3432119,0.8554755
2.095327377,0.2509459,0.2649716,-0.2670578,-0.3677527,0.3436987,0.8559597
2.097836494,0.3126058,0.4448847,-0.2059812,-0.3687242,0.343209,0.8559626
2.100345612,0.06596617,0.4448847,-0.2059812,-0.3643329,0.3412757,0.8568757
2.102855206,0.3742657,0.4448847,-0.1449047,-0.3672737,0.3471043,0.8564723
2.105364323,0.2509459,0.3849136,-0.08382816,-0.3667561,0.3495235,0.8622908
2.107873917,0.2509459,0.5648267,0.03832492,-0.3653224,0.3495382,0.8584136
2.110383034,0.4359255,0.3849136,-0.1449047,-0.3668298,0.3524664,0.8526548
2.112892151,0.3742657,0.2649716,-0.1449047,-0.3658233,0.3500278,0.8564892
2.115402222,0.5592454,0.5048557,-0.02275162,-0.3653353,0.349543,0.8564807
2.117911816,0.4975855,0.5648267,-0.1449047,-0.3663272,0.352462,0.8550671
2.120420933,0.6209053,0.3849136,-0.2059812,-0.3682734,0.3514837,0.8545896
2.122930527,0.4359255,0.3849136,-0.1449047,-0.3658531,0.3553835,0.8546085
2.125439644,0.6209053,0.5048557,-0.2670578,-0.365383,0.3534478,0.8512031
2.127948761,0.4975855,0.4448847,-0.08382816,-0.3653765,0.3534454,0.8521695
2.130458355,0.3742657,0.4448847,-0.1449047,-0.3624267,0.3539296,0.8569836
2.132967472,0.4975855,0.3249426,-0.2059812,-0.367299,0.3500289,0.8540846
2.135477066,0.3126058,0.4448847,-0.08382816,-0.3673191,0.355381,0.8536535
2.137986183,0.3126058,0.5648267,-0.2059812,-0.3677838,0.3505125,0.8545763
2.1404953,0.4359255,0.3849136,-0.4502874,-0.3711925,0.3514739,0.8546126
2.143005371,0.3742657,0.4448847,-0.3281343,-0.3658697,0.3524745,0.8507143
2.145514965,0.3126058,0.2649716,-0.1449047,-0.3702224,0.3534217,0.8551071
2.148024082,0.004306266,0.2050006,-0.1449047,-0.3692653,0.3544027,0.8531761
2.150533676,0.06596617,0.2649716,-0.2059812,-0.3687764,0.3495449,0.851192
2.153042793,0.06596617,0.08505853,-0.1449047,-0.3697479,0.3490551,0.8511949
2.15555191,0.004306266,0.1450296,-0.2059812,-0.3712042,0.349049,0.8516896
2.158061504,0.004306266,0.2050006,-0.2670578,-0.3702146,0.3519612,0.8555761
2.160570622,-0.1190135,0.1450296,-0.3281343,-0.368757,0.3495376,0.8540913
2.163080215,0.004306266,-0.0348835,-0.3892109,-0.3673039,0.3495449,0.8531134
2.165589333,-0.1806734,-0.0348835,-0.2059812,-0.3644168,0.3505385,0.8487508
2.16809845,-0.2423333,-0.0348835,-0.2670578,-0.3682556,0.3519629,0.8574938
2.170608521,-0.1190135,-0.1548255,-0.3892109,-0.3687554,0.3500228,0.8545793
2.173118115,-0.3039932,0.1450296,-0.3281343,-0.3697318,0.3490491,0.853611
2.175627232,-0.3039932,0.1450296,-0.08382816,-0.3672698,0.3509897,0.8589263
2.178136826,-0.2423333,0.08505853,-0.2670578,-0.3692836,0.3510086,0.8487938
2.180645943,-0.3039932,0.02508752,-0.1449047,-0.3658841,0.3529658,0.848786
2.18315506,-0.427313,0.08505853,-0.3281343,-0.3678045,0.3519779,0.8521745
2.185664654,-0.1190135,-0.0348835,-0.2059812,-0.3673226,0.3534388,0.8521848
2.188173771,-0.3039932,-0.09485453,-0.1449047,-0.3668279,0.3539233,0.8536354
2.190683365,-0.4889729,0.2050006,-0.1449047,-0.3677981,0.3519754,0.853141
2.193192482,-0.427313,0.08505853,-0.2670578,-0.3697445,0.3500255,0.8521708
2.195701599,-0.427313,0.08505853,-0.2059812,-0.3682814,0.3519726,0.853628
2.19821167,-0.427313,0.2050006,-0.3892109,-0.3678025,0.3544064,0.8536478
2.200721264,-0.4889729,0.08505853,-0.3892109,-0.3672934,0.3543996,0.8570266
2.203230381,-0.5506328,0.02508752,-0.2059812,-0.3697623,0.3597494,0.8541985
2.205739975,-0.427313,0.1450296,-0.08382816,-0.3678173,0.3529544,0.8507343
2.208249092,-0.8589323,0.2050006,-0.2059812,-0.3687727,0.3524586,0.8531533
2.210758209,-0.6122927,0.02508752,-0.3281343,-0.3663104,0.3563426,0.859454
2.213267803,-0.5506328,0.1450296,-0.4502874,-0.3682863,0.3514886,0.8526567
2.21577692,-0.5506328,0.08505853,-0.4502874,-0.3678018,0.3490617,0.8511796
2.218286514,-0.5506328,0.08505853,-0.3281343,-0.3682566,0.3461329,0.8545375
2.220795631,-0.6122927,0.02508752,-0.4502874,-0.3687382,0.3466153,0.8555126
2.223304749,-0.427313,0.3249426,-0.3281343,-0.3672985,0.3529439,0.8555627
2.225814343,-0.6122927,0.02508752,-0.2059812,-0.3691956,0.3475744,0.8603581
2.228324413,-0.3039932,-0.0348835,-0.2059812,-0.3677531,0.3509868,0.8594134
2.23083353,-0.3039932,0.02508752,-0.2059812,-0.3707014,0.3500162,0.8545946
2.233343124,-0.427313,0.1450296,-0.3281343,-0.3672959,0.3490561,0.8540751
2.235852242,-0.3656531,0.08505853,-0.4502874,-0.3648872,0.3505308,0.8511708
2.238361359,-0.3656531,0.1450296,-0.4502874,-0.366798,0.3495393,0.8560089
2.240870953,-0.3656531,-0.0348835,-0.2059812,-0.3677812,0.3466246,0.8530888
2.24338007,-0.427313,0.1450296,-0.2670578,-0.3648728,0.3500395,0.853099
2.245889664,-0.5506328,0.3849136,-0.2670578,-0.3692309,0.3485594,0.8555353
2.248398781,-0.3039932,0.1450296,-0.3892109,-0.3701971,0.350497,0.8574948
2.250907898,-0.3039932,0.08505853,-0.2670578,-0.3697192,0.3471009,0.8545585
2.253417969,-0.427313,0.2050006,-0.2670578,-0.3692482,0.3509952,0.8541093
2.255927563,-0.5506328,0.1450296,-0.3281343,-0.3702035,0.3504994,0.8565284
2.25843668,-0.427313,0.08505853,-0.2670578,-0.369244,0.3466209,0.852617
2.260946274,-0.3656531,-0.0348835,-0.3281343,-0.3677677,0.3505064,0.8569925
2.263455391,-0.3039932,0.08505853,-0.1449047,-0.3657787,0.3470958,0.8617762
2.265964508,-0.4889729,0.1450296,-0.2059812,-0.3629235,0.3500449,0.8535669
2.268474102,-0.5506328,0.5048557,-0.2670578,-0.3702023,0.3480697,0.8555382
2.270983219,-0.4889729,0.08505853,-0.1449047,-0.3663117,0.3485693,0.8555124
2.273492813,-0.3039932,0.02508752,-0.3281343,-0.365852,0.351982,0.8531256
2.27600193,-0.3039932,-0.0348835,-0.2059812,-0.368263,0.3461354,0.8535711
2.278511047,-0.427313,0.3249426,-0.2670578,-0.363404,0.3471259,0.8530592
2.281021118,-0.4889729,0.3249426,-0.1449047,-0.3638732,0.3446884,0.8544889
2.283530712,-0.4889729,0.08505853,-0.2670578,-0.3648935,0.3515049,0.8506971
2.286039829,-0.3656531,0.1450296,-0.2059812,-0.3658676,0.3549031,0.8521876
2.288549423,-0.3656531,0.3849136,-0.08382816,-0.3658496,0.3471225,0.8511453
2.29105854,-0.3039932,0.3249426,-0.2670578,-0.3697445,0.3500255,0.8521708
2.293567658,-0.3039932,0.2649716,-0.3281343,-0.369704,0.3514679,0.8589501
2.296077252,-0.3656531,0.08505853,-0.08382816,-0.3677602,0.3471026,0.8564761
2.298586369,-0.3656531,0.2050006,-0.2670578,-0.3692867,0.3519814,0.8488033
2.301095963,-0.3039932,0.4448847,-0.3892109,-0.365332,0.3495418,0.8569639
2.30360508,-0.4889729,0.3249426,-0.3281343,-0.3677789,0.3509965,0.8555475
2.306114197,-0.427313,0.2649716,-0.2059812,-0.3711878,0.3509862,0.8550911
2.308624268,-0.3656531,0.3249426,-0.3281343,-0.3668062,0.3490565,0.8545545
2.311133862,-0.3656531,0.3249426,-0.2670578,-0.3692592,0.352457,0.8531572
2.316152573,-0.3656531,0.3249426,-0.5113639,-0.3672912,0.3485684,0.8545536
2.31866169,-0.3656531,0.2649716,-0.2059812,-0.3648659,0.3529521,0.8555436
2.321170807,-0.3039932,0.3249426,-0.2670578,-0.3672651,0.350502,0.8594048
2.323680401,-0.2423333,0.4448847,-0.3892109,-0.3643729,0.3529513,0.8565062
2.326190472,-0.3656531,0.3249426,-0.1449047,-0.3667963,0.3500245,0.8564969
2.328699112,-0.2423333,0.3849136,-0.1449047,-0.371675,0.3470979,0.8531241
2.331208229,-0.1806734,0.5048557,-0.2670578,-0.3697191,0.3480725,0.8550512
2.333717346,-0.3039932,0.5648267,-0.3892109,-0.3677646,0.3495336,0.856983
2.336227417,-0.3039932,0.3849136,-0.08382816,-0.3701687,0.3465995,0.8598731
2.338737011,-0.2423333,0.4448847,-0.2059812,-0.3672573,0.3490415,0.8598738
2.341246128,-0.2423333,0.08505853,-0.4502874,-0.3663502,0.3495555,0.8502064
2.343755722,-0.1806734,0.08505853,-0.3892109,-0.3716638,0.3466079,0.8545691
2.346264839,-0.3039932,0.4448847,-0.3281343,-0.3692296,0.3461297,0.8545452
2.348773956,-0.3656531,0.5648267,-0.3281343,-0.3673042,0.3476016,0.852128
2.35128355,-0.1806734,0.2050006,-0.3281343,-0.3658183,0.3514835,0.8579531
2.353792667,-0.2423333,0.2649716,-0.2059812,-0.3702293,0.3505091,0.8526626
2.356302261,-0.3039932,0.2649716,-0.3281343,-0.3658233,0.3500278,0.8564892
2.358811379,-0.427313,0.3849136,-0.3892109,-0.3678113,0.3500369,0.8502226
2.361320496,-0.4889729,0.5048557,-0.5113639,-0.3702462,0.3456568,0.8477829
2.363830566,-0.2423333,0.3249426,-0.4502874,-0.369237,0.3505051,0.8555543
2.36634016,-0.3656531,0.2050006,-0.4502874,-0.3697009,0.350495,0.8589407
2.368849278,-0.6122927,0.3849136,-0.4502874,-0.3706711,0.3485472,0.8584461
2.371358872,-0.5506328,0.4448847,-0.5113639,-0.3672945,0.347598,0.8535777
2.373867989,-0.5506328,0.3249426,-0.5113639,-0.3668141,0.3495454,0.8535928
2.376377106,-0.6122927,0.02508752,-0.5113639,-0.3677582,0.3495312,0.8579494
2.3788867,-0.3656531,0.2649716,-0.3281343,-0.3682418,0.347585,0.8574511
2.381395817,-0.427313,0.2649716,-0.2670578,-0.3711787,0.3470959,0.85457
2.383905411,-0.5506328,0.2050006,-0.5724405,-0.3692281,0.3456432,0.8545405
2.386414528,-0.3656531,0.1450296,-0.3892109,-0.3682761,0.3451685,0.8511455
2.388923645,-0.4889729,0.02508752,-0.5113639,-0.3662896,0.3456458,0.8574169
2.391433239,-0.4889729,0.2050006,-0.5724405,-0.3687445,0.3475894,0.8550388
2.39394331,-0.3656531,0.2649716,-0.4502874,-0.3702218,0.3471053,0.8521462
2.396452427,-0.5506328,0.08505853,-0.3281343,-0.3643349,0.3490502,0.8603341
2.398962021,-0.427313,0.2050006,-0.5113639,-0.3663391,0.3480937,0.8511586
2.401471138,-0.5506328,0.08505853,-0.4502874,-0.3687684,0.349056,0.8521537
2.403980255,-0.3656531,0.3249426,-0.5724405,-0.3716575,0.3456338,0.8550428
2.406489849,-0.3039932,0.2050006,-0.5724405,-0.3697049,0.3456379,0.8559939
2.408998966,-0.3656531,0.3849136,-0.3281343,-0.3726498,0.3456377,0.8521511
2.41150856,-0.2423333,0.2050006,-0.3892109,-0.3643608,0.3480882,0.8559756
2.414017677,-0.1806734,0.08505853,-0.3892109,-0.3682227,0.346606,0.8598578
2.416526795,-0.427313,0.2649716,-0.3892109,-0.3706795,0.3461211,0.8560063
2.419036865,-0.3656531,0.2649716,-0.4502874,-0.3682613,0.3466206,0.8540591
2.421546459,-0.2423333,0.2649716,-0.2059812,-0.3677734,0.3451641,0.8535578
2.424055576,-0.3039932,0.3249426,-0.2670578,-0.3731056,0.3461104,0.8569919
2.42656517,-0.2423333,0.2649716,-0.2670578,-0.3706951,0.3490421,0.8550683
2.429074288,-0.3039932,0.2649716,-0.2670578,-0.371199,0.3514763,0.8536462
2.431583405,-0.3039932,0.2649716,-0.1449047,-0.3721421,0.347089,0.8560272
2.434092999,-0.2423333,0.2649716,-0.2670578,-0.3667892,0.3446773,0.8549951
2.436602116,-0.2423333,0.2649716,-0.2670578,-0.3672614,0.3432128,0.8564344
2.43911171,-0.05735363,0.2050006,-0.3281343,-0.3658431,0.3471201,0.8521118
2.441620827,-0.1190135,0.1450296,-0.08382816,-0.3662876,0.3480743,0.8588902
2.444129944,0.004306266,0.3249426,-0.1449047,-0.3691992,0.3446606,0.8583968
2.446640015,-0.05735363,0.3249426,-0.1449047,-0.3697166,0.343213,0.853071
2.449149609,-0.1190135,0.2649716,-0.1449047,-0.3707287,0.3505123,0.8507335
2.451658726,-0.05735363,0.3849136,-0.2059812,-0.3668433,0.3485846,0.848751
2.45416832,-0.1806734,0.02508752,0.03832492,-0.3692187,0.3436963,0.8550047
2.456677437,-0.1806734,0.2649716,-0.08382816,-0.3697111,0.3475837,0.8560129
2.459186554,-0.05735363,0.4448847,-0.2670578,-0.3677745,0.3485656,0.8550406
2.461696148,-0.1190135,0.2649716,-0.1449047,-0.366299,0.3475928,0.8569526
2.464205265,-0.1190135,0.2649716,-0.2059812,-0.3682466,0.3480726,0.8569726
2.466714859,0.004306266,0.1450296,-0.1449047,-0.3638991,0.3539295,0.8550622
2.469224453,0.1276261,0.1450296,-0.3281343,-0.3677709,0.3505076,0.8565093
2.471733093,-0.1190135,0.2050006,-0.2059812,-0.3721629,0.3485544,0.8536254
2.474243164,-0.1190135,0.1450296,-0.02275162,-0.3663117,0.3485693,0.8555124
2.476752758,-0.05735363,0.08505853,-0.2059812,-0.3716886,0.3524475,0.8536595
2.479261875,-0.1806734,0.02508752,-0.08382816,-0.3673091,0.3471176,0.8511568
2.481771469,-0.05735363,0.2050006,-0.1449047,-0.36731,0.3514906,0.8531324
2.484280586,-0.05735363,0.2649716,-0.1449047,-0.3663419,0.3510099,0.8521535
2.486789703,-0.2423333,0.2649716,-0.2059812,-0.3668218,0.3519775,0.8536165
2.489299297,-0.1806734,0.2050006,-0.3281343,-0.3678079,0.3510074,0.8511986
2.491808415,-0.2423333,0.2649716,-0.2670578,-0.3668233,0.352464,0.8536212
2.494318009,-0.2423333,0.2649716,-0.2059812,-0.3643717,0.3505216,0.855516
2.496827126,-0.1190135,0.3849136,-0.4502874,-0.3687632,0.3514833,0.8541103
2.499336243,-0.2423333,0.3249426,-0.3281343,-0.3687526,0.3471066,0.8535844
2.501845837,-0.1806734,0.2649716,-0.2059812,-0.3687778,0.3510029,0.8516894
2.504355908,-0.1190135,0.08505853,-0.2059812,-0.3653721,0.3510144,0.8516626
2.506865025,-0.05735363,0.2649716,-0.3281343,-0.3711613,0.3456318,0.8564886
2.509374619,-0.1190135,0.3249426,-0.2059812,-0.3711669,0.3504925,0.8579857
2.511883736,0.004306266,0.2050006,-0.2670578,-0.3687353,0.3446708,0.8550104
2.514392853,-0.1806734,0.4448847,-0.3892109,-0.3677719,0.3446777,0.8535531
2.516902447,0.1276261,0.1450296,-0.4502874,-0.3677633,0.3480755,0.8564856
2.519411564,0.06596617,0.08505853,-0.1449047,-0.3677537,0.3471002,0.8574426
2.521921158,-0.05735363,0.3849136,-0.2059812,-0.3682638,0.3514801,0.8560393
2.524430275,0.004306266,0.1450296,-0.2670578,-0.3721564,0.348552,0.8545918
2.526939392,0.004306266,0.2050006,-0.2670578,-0.3711915,0.3480724,0.8531298
2.529449463,-0.05735363,0.2649716,-0.3892109,-0.369231,0.3475878,0.8550426
2.531959057,-0.05735363,0.08505853,-0.1449047,-0.3668255,0.3490638,0.8516552
2.534468174,0.004306266,0.1450296,-0.3892109,-0.3721696,0.3466135,0.8516735
2.536977768,-0.05735363,0.2649716,-0.3892109,-0.370673,0.3461187,0.8569728
2.539486885,0.06596617,0.5048557,-0.1449047,-0.367783,0.3451677,0.8521081
2.541996002,-0.05735363,0.3849136,-0.1449047,-0.3721577,0.3509817,0.8555819
2.544505596,0.06596617,0.02508752,-0.08382816,-0.3730972,0.3485366,0.8594317
2.547014713,0.004306266,0.1450296,-0.1449047,-0.3731328,0.3475782,0.8536236
2.549524307,-0.05735363,0.08505853,-0.2059812,-0.3726314,0.3500035,0.857026
2.552033425,0.1276261,0.3249426,-0.3281343,-0.3682291,0.3466085,0.8588913
2.554542542,0.189286,0.3849136,-0.3281343,-0.3697316,0.3500207,0.8541037
2.557052612,0.1276261,0.2649716,-0.2670578,-0.368261,0.3485639,0.8550444
2.559562206,0.004306266,0.1450296,0.03832492,-0.3672672,0.3471018,0.8574387
2.562071324,-0.1190135,0.2649716,0.09940146,-0.3706646,0.3485448,0.8594126
2.564580917,-0.05735363,-0.09485453,-0.2670578,-0.3687541,0.347593,0.8535892
2.567090035,-0.05735363,0.02508752,-0.1449047,-0.3697214,0.3437006,0.8525924
2.569599152,0.004306266,0.2649716,-0.3892109,-0.3687546,0.344678,0.852111
2.572108746,0.004306266,0.02508752,-0.2670578,-0.3697141,0.3485565,0.8560224
2.574617863,-0.1190135,0.02508752,-0.02275162,-0.366339,0.3490654,0.8516513
2.577127457,-0.05735363,0.08505853,-0.02275162,-0.3667677,0.3480703,0.8598605
2.579636574,-0.1190135,0.3249426,-0.2670578,-0.3687342,0.3514724,0.8584593
2.582145691,-0.1806734,0.08505853,-0.1449047,-0.37066,0.3470855,0.8593984
2.584655762,-0.05735363,0.08505853,-0.1449047,-0.3697148,0.3446699,0.8540516
2.587165356,0.004306266,0.08505853,-0.2059812,-0.3677884,0.3519718,0.8545906
2.589674473,0.004306266,0.1450296,-0.1449047,-0.3687489,0.3500203,0.8555457
2.589674473,0.004306266,0.1450296,-0.1449047,-0.3687489,0.3500203,0.8555457
2.594693184,-0.1806734,0.1450296,-0.2670578,-0.3667999,0.3480824,0.8550283
2.597202301,0.004306266,0.2649716,-0.2059812,-0.367778,0.3466235,0.853572
2.597202301,0.004306266,0.2649716,-0.2059812,-0.367778,0.3466235,0.853572
2.599711895,0.004306266,0.5648267,-0.08382816,-0.3668062,0.3490565,0.8545545
2.602221012,-0.05735363,0.3849136,-0.2059812,-0.3667867,0.3500209,0.8579466
2.604730606,-0.05735363,0.2649716,-0.2670578,-0.3662956,0.3485633,0.8579285
2.607239723,0.004306266,0.08505853,-0.2670578,-0.3677792,0.3490532,0.8545622
2.60974884,-0.1190135,0.1450296,-0.08382816,-0.3707238,0.3509963,0.8517047
2.612258911,0.004306266,0.2649716,-0.2059812,-0.3658399,0.3471189,0.852595
2.614768505,0.004306266,0.3249426,-0.2670578,-0.3682564,0.3471046,0.8550302
2.617277622,0.004306266,0.2649716,-0.1449047,-0.3692539,0.3456529,0.8506747
2.619787216,-0.05735363,0.2649716,-0.2670578,-0.3711663,0.3441761,0.8550248
2.622296333,0.189286,0.3849136,-0.08382816,-0.3721391,0.3461162,0.8560178
2.624805451,0.1276261,0.3249426,-0.2059812,-0.3711898,0.3485577,0.8536177
2.627315045,-0.05735363,0.2649716,-0.2059812,-0.3711945,0.3490453,0.8531393
2.629824162,0.004306266,0.3249426,-0.2059812,-0.3697602,0.3529466,0.8512328
2.632333756,0.06596617,0.5048557,-0.2670578,-0.3726571,0.3509849,0.8536529
2.63484335,0.004306266,0.3849136,-0.1449047,-0.3711817,0.3490405,0.8550721
2.63735199,0.189286,0.2050006,-0.08382816,-0.3682644,0.3475935,0.8540686
2.639862061,-0.05735363,0.1450296,-0.02275162,-0.3731406,0.3490387,0.8531545
2.642371655,-0.05735363,0.3849136,-0.08382816,-0.3726428,0.349522,0.8550884
2.644880772,0.06596617,0.08505853,-0.02275162,-0.3721353,0.3500016,0.8584718
2.647390366,0.06596617,-0.0348835,-0.08382816,-0.3711752,0.3490381,0.8560386
2.649899483,-0.1190135,0.3249426,-0.1449047,-0.3716918,0.3524487,0.8531762
2.6524086,0.004306266,0.1450296,-0.2059812,-0.371188,0.3500145,0.8545984
2.654918194,0.06596617,0.02508752,-0.1449047,-0.368263,0.3461354,0.8535711
2.657427311,0.004306266,0.3249426,-0.08382816,-0.3702301,0.3456508,0.8501991
2.659936905,-0.2423333,0.2050006,-0.08382816,-0.3672151,0.340766,0.8622093
2.662446022,-0.1190135,0.1450296,-0.1449047,-0.3662405,0.3504859,0.8671287
2.664955139,0.2509459,0.2050006,-0.08382816,-0.370674,0.3504917,0.8589483
2.66746521,0.1276261,0.2649716,-0.1449047,-0.3711754,0.3480664,0.8555459
2.669974804,0.06596617,0.5048557,-0.1449047,-0.3702023,0.3480697,0.8555382
2.672483921,0.004306266,0.08505853,-0.1449047,-0.370725,0.3534261,0.8526948
2.674993515,-0.1806734,0.08505853,-0.3281343,-0.373625,0.3524373,0.8551244
2.677502632,-0.1806734,0.3249426,-0.2059812,-0.3706825,0.3470939,0.8560158
2.680011749,-0.05735363,0.3249426,-0.3281343,-0.3672827,0.3509945,0.8569934
2.682521343,-0.1806734,0.2649716,-0.2059812,-0.3702232,0.3485634,0.8526436
2.685030461,-0.05735363,0.2649716,-0.1449047,-0.3682693,0.3471094,0.8530974
2.687540054,-0.1190135,0.1450296,-0.3281343,-0.3682722,0.349054,0.8535995
2.690049172,-0.1190135,0.1450296,-0.3281343,-0.3692571,0.3456541,0.8501915
2.692559242,-0.05735363,0.2050006,-0.3892109,-0.3658689,0.3471298,0.8482459
2.69506836,-0.1190135,0.1450296,-0.2670578,-0.3667907,0.3451638,0.8549998
2.697577954,-0.1806734,0.2050006,-0.2059812,-0.3706844,0.3456371,0.8550351
2.700087071,0.004306266,0.3249426,-0.2670578,-0.3716536,0.3495192,0.8574968
2.702596665,-0.05735363,0.02508752,-0.3281343,-0.3711608,0.3485468,0.8579667
2.705105782,-0.1806734,0.3849136,-0.1449047,-0.3667907,0.3451638,0.8549998
2.707614899,-0.1190135,0.4448847,-0.1449047,-0.3707264,0.3446811,0.8482605
2.710124493,0.06596617,0.2649716,-0.3281343,-0.3716555,0.3480623,0.8565162
2.71263361,-0.05735363,0.2050006,-0.2670578,-0.3706954,0.3470988,0.8540829
2.715143204,-0.05735363,0.3249426,-0.2059812,-0.373608,0.3480582,0.855565
2.717652321,0.004306266,0.2649716,-0.2059812,-0.372133,0.3441704,0.8559988
2.720162392,0.1276261,0.2649716,-0.2670578,-0.3701991,0.3480684,0.8560215
2.722671509,0.189286,0.1450296,-0.2670578,-0.3741055,0.3495183,0.8546166
2.725181103,-0.1190135,0.2649716,-0.2670578,-0.3711594,0.3470887,0.8574693
2.72769022,0.004306266,0.3249426,-0.2059812,-0.3701935,0.3432077,0.8545244
2.730199814,0.06596617,0.2050006,-0.1449047,-0.3702296,0.3485658,0.8516772
2.732708931,0.06596617,0.2649716,-0.2059812,-0.3696766,0.3417404,0.8583722
2.735218048,-0.05735363,0.2649716,-0.08382816,-0.3692413,0.3437047,0.8516222
2.737727642,0.004306266,0.2050006,-0.2059812,-0.3667994,0.3509974,0.8565063
2.740236759,0.2509459,0.02508752,-0.08382816,-0.3702203,0.3466188,0.8521414
2.742746353,0.06596617,0.2050006,-0.1449047,-0.3701802,0.3451462,0.8574427
2.74525547,0.189286,0.2050006,-0.1449047,-0.3696809,0.345143,0.8593718
2.747765541,0.1276261,-0.09485453,-0.08382816,-0.3736262,0.344664,0.8511828
2.750274658,0.1276261,0.3249426,-0.08382816,-0.3702279,0.349051,0.8521652
2.752784252,0.1276261,0.3849136,-0.08382816,-0.3712022,0.3514775,0.8531629
2.755293369,-0.1190135,0.1450296,-0.02275162,-0.3707095,0.3495334,0.8531402
2.757802963,0.1276261,-0.0348835,-0.02275162,-0.3716635,0.3485512,0.8555544
2.760312081,0.1276261,0.2050006,0.03832492,-0.3648302,0.3446791,0.8569127
2.762821198,0.189286,0.1450296,0.03832492,-0.3677765,0.346137,0.8535673
2.765330792,0.06596617,0.08505853,-0.02275162,-0.3692278,0.3475865,0.8555259
2.767839909,0.004306266,-0.0348835,-0.02275162,-0.3677557,0.3446716,0.8559691
2.770349503,0.004306266,-0.0348835,-0.02275162,-0.3682514,0.3485603,0.8564941
2.77285862,0.004306266,0.3849136,-0.1449047,-0.3682599,0.3451625,0.8535616
2.775368691,-0.05735363,0.08505853,-0.02275162,-0.372654,0.350012,0.8536434
2.777877808,0.06596617,0.1450296,0.03832492,-0.3677877,0.3466271,0.8521223
2.780387402,0.06596617,0.2649716,0.09940146,-0.3726416,0.3470922,0.8540982
2.782896519,0.189286,0.3849136,-0.02275162,-0.3735773,0.3485325,0.860402
2.785406113,0.189286,0.08505853,-0.02275162,-0.3716639,0.3456362,0.8540764
2.78791523,-0.1190135,-0.0348835,-0.02275162,-0.3726957,0.3509994,0.8478541
2.790424347,-0.3039932,0.1450296,0.09940146,-0.3707011,0.3519595,0.85558
2.792933941,-0.1190135,0.08505853,0.09940146,-0.3712295,0.3519736,0.8493018
2.795443058,0.06596617,0.1450296,0.03832492,-0.3667772,0.3490456,0.8589035
2.797952652,-0.1190135,0.2050006,0.03832492,-0.3682225,0.3475777,0.8603505
2.800461769,0.004306266,0.1450296,-0.1449047,-0.3721754,0.3505026,0.8526779
2.80297184,-0.05735363,0.02508752,-0.08382816,-0.371665,0.3490376,0.8555592
2.805480957,-0.1806734,-0.0348835,0.09940146,-0.3687239,0.3451523,0.856948
2.807990551,0.06596617,0.1450296,-0.02275162,-0.3697391,0.3534245,0.8546201
2.810499668,-0.1806734,0.2050006,-0.2059812,-0.3701942,0.3485525,0.8569927
2.813009262,-0.1806734,0.08505853,-0.1449047,-0.3697267,0.3505047,0.8550749
2.815518379,-0.1190135,0.1450296,-0.1449047,-0.3697157,0.349043,0.8560271
2.818027497,-0.2423333,0.08505853,0.09940146,-0.3731337,0.3519513,0.855599
2.82053709,-0.05735363,0.1450296,-0.08382816,-0.3692675,0.3510025,0.85121
2.823046208,-0.05735363,0.02508752,-0.1449047,-0.3682432,0.3490431,0.8579485
2.825555802,-0.05735363,0.02508752,-0.2059812,-0.3707065,0.3485605,0.8531307
2.828064919,-0.05735363,-0.09485453,-0.08382816,-0.3692201,0.3451543,0.8555021
2.83057499,-0.2423333,0.1450296,0.03832492,-0.3667971,0.3451662,0.8540334
2.833084107,-0.1806734,0.08505853,-0.02275162,-0.3648674,0.3534386,0.8555483
2.835593701,-0.05735363,-0.09485453,-0.08382816,-0.368275,0.3519702,0.8545944
2.838102818,0.004306266,0.1450296,-0.2670578,-0.3682883,0.3490601,0.8511834
2.840612412,0.004306266,0.08505853,-0.08382816,-0.3663175,0.3524584,0.8565168
2.843121529,0.06596617,0.2050006,-0.1449047,-0.3677479,0.3432111,0.8564382
2.845630646,-0.05735363,0.1450296,-0.2059812,-0.3701902,0.3432065,0.8550076
2.84814024,-0.2423333,0.08505853,-0.02275162,-0.3735986,0.3461112,0.8560293
2.850649357,-0.05735363,0.2649716,-0.08382816,-0.3721557,0.3432072,0.8521236
2.853158951,0.004306266,0.02508752,0.03832492,-0.3692597,0.349542,0.851679
2.855668545,0.004306266,0.3249426,-0.2670578,-0.369708,0.3466108,0.8560034
2.858178139,0.004306266,0.2649716,-0.2059812,-0.369242,0.3490495,0.8540904
2.860687256,0.004306266,0.2649716,-0.2059812,-0.3682804,0.3485712,0.8521451
2.86319685,0.004306266,0.2649716,-0.2059812,-0.3682389,0.3456404,0.856949
2.865705967,-0.1190135,0.3249426,-0.3892109,-0.3687509,0.3475918,0.8540724
2.868215561,-0.1190135,0.4448847,-0.2059812,-0.3702204,0.3456472,0.8516487
2.870724678,-0.1190135,0.4448847,-0.1449047,-0.3726443,0.3500084,0.8550931
2.873233795,0.1276261,0.1450296,-0.08382816,-0.3673088,0.3490609,0.8521422
2.875743389,0.06596617,0.3249426,-0.2059812,-0.3677741,0.3505088,0.856026
2.878252506,0.004306266,0.3849136,-0.2059812,-0.3677792,0.3490532,0.8545622
2.8807621,0.004306266,0.02508752,-0.1449047,-0.3658258,0.3446843,0.8535378
2.883271218,-0.1190135,0.2050006,-0.1449047,-0.3711461,0.3499988,0.8608803
2.885781288,0.004306266,0.4448847,-0.1449047,-0.3740914,0.3470837,0.8555593
2.888290405,0.06596617,0.2050006,-0.02275162,-0.3697192,0.3471009,0.8545585
2.890799999,0.1276261,0.08505853,-0.02275162,-0.3692382,0.3529349,0.8565444
2.893309117,0.004306266,0.1450296,-0.1449047,-0.372656,0.3475835,0.8521701
2.895818711,-0.1190135,0.3249426,-0.1449047,-0.3721696,0.3466135,0.8516735
2.898327828,0.004306266,0.2050006,-0.02275162,-0.3712086,0.3514799,0.8521965
2.900836945,0.06596617,0.2050006,-0.08382816,-0.3692312,0.3466161,0.8545499
2.903346539,0.004306266,0.2050006,-0.1449047,-0.3682916,0.3490613,0.8507002
2.905855656,-0.05735363,-0.1548255,0.160478,-0.3701881,0.3466067,0.8569737
2.90836525,0.06596617,0.1450296,-0.02275162,-0.3726604,0.3500144,0.8526769
2.910874844,0.189286,0.08505853,-0.08382816,-0.3692217,0.3456408,0.8555069
2.913384438,-0.1190135,-0.0348835,-0.08382816,-0.3701307,0.3426983,0.8637009
2.915893555,-0.1190135,0.1450296,-0.1449047,-0.3682685,0.3519678,0.8555608
2.918403149,0.004306266,0.08505853,-0.1449047,-0.3725868,0.3470716,0.862313
2.920912266,0.06596617,0.1450296,0.09940146,-0.367291,0.3495401,0.8550463
2.92342186,0.06596617,0.02508752,-0.02275162,-0.372158,0.3490384,0.8545966
2.925930977,0.1276261,0.08505853,0.03832492,-0.3716799,0.3466139,0.8521529
2.928440094,-0.1190135,0.02508752,-0.02275162,-0.3701801,0.3461179,0.8579354
2.930949688,-0.2423333,0.02508752,-0.02275162,-0.369737,0.3466217,0.8516544
2.933458805,-0.05735363,-0.0348835,-0.02275162,-0.3673183,0.3500362,0.8511853
2.935968399,-0.05735363,-0.2147966,0.09940146,-0.3687685,0.3480843,0.851661
2.938477993,0.004306266,0.02508752,-0.08382816,-0.3643432,0.3475957,0.8583869
2.946006298,0.1276261,-0.0348835,-0.02275162,-0.3687509,0.3475918,0.8540724
2.948515415,-0.05735363,0.02508752,0.09940146,-0.3707071,0.3446739,0.8511599
2.951025009,0.004306266,0.02508752,0.09940146,-0.3711981,0.3471032,0.8516706
2.953534127,-0.1190135,-0.1548255,0.03832492,-0.3677713,0.3485644,0.8555238
2.956043244,-0.3039932,-0.09485453,-0.02275162,-0.3687297,0.3490415,0.8579524
2.958552838,-0.3039932,0.08505853,0.09940146,-0.3663217,0.3466296,0.8530774
2.961061955,-0.1806734,-0.09485453,-0.08382816,-0.3672847,0.348566,0.85552
2.963571549,-0.1190135,-0.1548255,0.03832492,-0.370691,0.3446678,0.853576
2.966081143,0.004306266,-0.0348835,0.09940146,-0.3707307,0.3480838,0.8492601
2.968590737,0.06596617,0.1450296,0.03832492,-0.3711841,0.3539,0.8570524
2.971099854,0.004306266,-0.0348835,0.03832492,-0.3663019,0.3495373,0.8574548
2.973609448,-0.1806734,-0.2147966,-0.1449047,-0.3687558,0.3471078,0.8531012
2.976118565,0.06596617,-0.0348835,-0.1449047,-0.368271,0.3466242,0.8526094
2.978628159,-0.05735363,-0.0348835,-0.08382816,-0.3692228,0.3480706,0.856497
2.981137276,-0.1190135,0.02508752,-0.02275162,-0.3692051,0.3485498,0.8594012
2.983646393,-0.1190135,-0.1548255,-0.08382816,-0.3697543,0.3490575,0.8502284
2.986155987,-0.1806734,-0.09485453,0.09940146,-0.3658392,0.3519772,0.8550585
2.988665104,-0.1806734,0.02508752,-0.08382816,-0.368738,0.347587,0.8560053
2.991174698,-0.1190135,0.1450296,-0.08382816,-0.3711643,0.3466047,0.8564981
2.993684292,0.06596617,0.1450296,-0.02275162,-0.3706968,0.3485569,0.8545803
2.996193886,-0.1806734,0.08505853,-0.02275162,-0.3711703,0.3495221,0.8570098
2.998703003,-0.1806734,0.02508752,-0.08382816,-0.3697158,0.3480713,0.8555344
3.001212597,-0.05735363,0.02508752,-0.1449047,-0.3697332,0.3505071,0.8541085
3.003721714,-0.1806734,0.08505853,-0.1449047,-0.3702013,0.3446682,0.8540554
3.006231308,-0.1190135,0.1450296,-0.1449047,-0.3692489,0.3461369,0.8516458
3.008740425,-0.1806734,0.02508752,-0.02275162,-0.3672951,0.3437113,0.8516068
3.011249542,-0.1806734,-0.09485453,-0.02275162,-0.3697115,0.3446687,0.8545348
3.013759136,-0.1806734,0.1450296,0.03832492,-0.3667871,0.3471059,0.8564685
3.016268253,-0.2423333,-0.0348835,0.03832492,-0.3643475,0.3407953,0.8544549
3.018778324,-0.1190135,-0.2147966,-0.02275162,-0.3667825,0.3456466,0.8564543
3.021287441,-0.1806734,-0.0348835,0.160478,-0.3682705,0.3495392,0.8540875
3.023797035,-0.2423333,-0.09485453,-0.02275162,-0.3682673,0.349538,0.8545707
3.026306152,-0.1190135,0.1450296,-0.1449047,-0.3667873,0.3461342,0.8559757
3.028815746,0.004306266,0.2050006,-0.02275162,-0.363402,0.3495544,0.8545325
3.031324863,-0.1806734,0.1450296,-0.02275162,-0.3687302,0.3461265,0.8564743
3.033834457,-0.1806734,0.1450296,-0.1449047,-0.3740933,0.3456267,0.8545787
3.036343575,-0.2423333,0.08505853,-0.02275162,-0.3677765,0.346137,0.8535673
3.038852692,-0.3039932,0.02508752,0.03832492,-0.3711921,0.3441858,0.851159
3.041362286,-0.1806734,0.08505853,0.03832492,-0.368765,0.3500264,0.8531296
3.043871403,-0.05735363,0.02508752,-0.08382816,-0.3711837,0.3466119,0.8535988
3.046381474,-0.1806734,-0.2747676,0.160478,-0.3692315,0.3446728,0.8535646
3.048890591,-0.1190135,-0.09485453,0.09940146,-0.3721491,0.3441765,0.8535827
3.051400185,-0.1806734,-0.2747676,0.03832492,-0.3653502,0.3471193,0.8530744
3.053909302,0.004306266,-0.2747676,0.160478,-0.3663194,0.3510015,0.855536
3.056418896,-0.05735363,-0.0348835,0.09940146,-0.370225,0.3471065,0.851663
3.058928013,-0.1190135,0.08505853,0.03832492,-0.3687443,0.3485611,0.8555315
3.061437607,-0.1190135,-0.09485453,0.09940146,-0.3653517,0.3476057,0.8530792
3.063946724,-0.2423333,-0.0348835,0.2215545,-0.3668419,0.3471265,0.8482536
3.066455841,-0.1806734,-0.2147966,0.09940146,-0.3707289,0.3495407,0.8502408
3.068965435,-0.1806734,-0.1548255,0.160478,-0.370703,0.3505026,0.8545993
3.071474552,0.06596617,0.1450296,-0.02275162,-0.366832,0.3490662,0.8506888
3.073984623,0.06596617,0.02508752,-0.02275162,-0.3736355,0.3475826,0.8512112
3.07649374,-0.1190135,0.08505853,-0.08382816,-0.3716782,0.3470992,0.8526409
3.079003334,-0.1190135,0.02508752,0.09940146,-0.3687405,0.3524465,0.8579856
3.081512451,0.004306266,-0.0348835,0.09940146,-0.368764,0.346625,0.8516468
3.084022045,-0.05735363,-0.09485453,0.03832492,-0.3682644,0.3475935,0.8540686
3.086531162,-0.1806734,-0.0348835,0.03832492,-0.3692309,0.3485594,0.8555353
3.089040756,-0.1806734,-0.09485453,-0.02275162,-0.3682658,0.3490516,0.854566
3.091549873,-0.2423333,-0.1548255,-0.02275162,-0.3711737,0.3485516,0.8560338
3.094058991,-0.1806734,-0.2147966,-0.02275162,-0.3682624,0.350022,0.8555419
3.096568584,-0.1190135,-0.2147966,0.03832492,-0.3702052,0.3500142,0.8560404
3.099077702,-0.1806734,-0.09485453,0.160478,-0.3707028,0.3514743,0.855092
3.101587772,-0.1190135,-0.2747676,0.03832492,-0.3692086,0.3466076,0.8579325
3.10409689,-0.1190135,-0.2747676,0.03832492,-0.3702289,0.3534241,0.8541407
3.106606483,-0.427313,-0.2747676,0.09940146,-0.3682737,0.3495404,0.8536043
3.109115601,-0.1806734,-0.3347386,-0.08382816,-0.3697286,0.3490478,0.8540942
3.111625195,-0.1806734,-0.0348835,0.03832492,-0.3673024,0.3490585,0.8531087
3.114134312,-0.1190135,0.02508752,0.09940146,-0.3682578,0.3485627,0.8555276
3.116643906,-0.05735363,0.02508752,0.09940146,-0.3692425,0.3461345,0.8526123
3.119153023,-0.05735363,-0.09485453,-0.02275162,-0.3682342,0.3451528,0.8574274
3.12166214,-0.1190135,-0.3947096,0.09940146,-0.3741152,0.3495219,0.8531669
3.124171734,0.004306266,-0.2747676,0.160478,-0.3711959,0.3505034,0.8536367
3.126681805,-0.1806734,-0.2747676,0.160478,-0.3687322,0.3436979,0.8550009
3.129190922,-0.05735363,-0.3347386,0.03832492,-0.3687395,0.3480734,0.85601
3.131700039,0.004306266,-0.3347386,-0.02275162,-0.3707112,0.3490482,0.8526522
3.134209633,-0.05735363,-0.2147966,-0.1449047,-0.3687592,0.3461373,0.8521252
3.13671875,-0.2423333,-0.2747676,0.09940146,-0.3706714,0.3466039,0.8574607
3.139228344,-0.2423333,-0.3347386,-0.02275162,-0.3721711,0.3470999,0.8516783
3.141737461,-0.3039932,-0.09485453,0.03832492,-0.3677798,0.3451665,0.8525913
3.144247055,-0.1806734,-0.1548255,0.09940146,-0.369247,0.3485655,0.8531193
3.146756172,-0.05735363,-0.3347386,-0.02275162,-0.3721552,0.3461222,0.8536017
3.149265289,-0.1806734,-0.2747676,-0.02275162,-0.3711887,0.3451562,0.8521349
3.151774883,-0.1806734,-0.2747676,-0.08382816,-0.371185,0.34807,0.8540962
3.154284954,-0.2423333,-0.3947096,0.03832492,-0.3721513,0.3500076,0.8560557
3.156794071,-0.1806734,-0.2747676,0.03832492,-0.3716704,0.3456386,0.85311
3.159303188,-0.2423333,-0.2747676,0.09940146,-0.3668289,0.3480933,0.8506793
3.161812782,-0.3039932,-0.09485453,0.09940146,-0.3682699,0.3432228,0.8511266
3.164321899,-0.2423333,-0.1548255,0.09940146,-0.366291,0.3471039,0.8579143
3.166831493,-0.1190135,-0.2147966,-0.1449047,-0.3624,0.3495468,0.8588738
3.169340611,-0.1190135,-0.1548255,-0.02275162,-0.3677637,0.3451605,0.8550075
3.171850205,-0.1806734,-0.2147966,0.09940146,-0.3692457,0.3461357,0.852129
3.174359322,0.06596617,-0.1548255,0.160478,-0.369202,0.3475769,0.8593917
3.176868439,-0.05735363,-0.0348835,-0.02275162,-0.3697204,0.3495306,0.8555486
3.179378033,0.06596617,-0.1548255,0.160478,-0.3653359,0.3456563,0.8545099
3.181888104,-0.05735363,-0.2747676,0.2826311,-0.3697224,0.3471021,0.8540753
3.184397221,-0.1190135,-0.2147966,0.2215545,-0.3653199,0.3446786,0.8564333
3.186906338,-0.05735363,-0.0348835,0.3437076,-0.3667456,0.3451468,0.861765
3.189415932,0.06596617,0.02508752,0.160478,-0.3677847,0.3446825,0.8516201
3.191925049,0.189286,0.02508752,0.09940146,-0.3702181,0.350019,0.8541075
3.194434643,0.3126058,0.08505853,0.09940146,-0.3711757,0.3461231,0.8545605
3.19694376,0.189286,-0.1548255,0.160478,-0.3663131,0.3398243,0.8510781
3.199453354,0.189286,-0.2147966,0.03832492,-0.3706574,0.3431976,0.8579108
3.201962471,0.189286,-0.0348835,0.03832492,-0.3735773,0.3485325,0.860402
3.204471588,0.06596617,-0.09485453,0.09940146,-0.3672818,0.3466215,0.8550178
3.206981659,0.3126058,-0.09485453,0.160478,-0.3658364,0.349061,0.8540636
3.209491253,0.189286,0.08505853,0.160478,-0.3687808,0.3519758,0.8516989
3.21200037,0.06596617,-0.0348835,0.160478,-0.3648699,0.348095,0.8525968
3.214509487,0.189286,-0.0348835,0.09940146,-0.3648826,0.3490716,0.8511567
3.217019081,0.1276261,-0.0348835,0.09940146,-0.3687328,0.3500143,0.8579618
3.219528198,0.06596617,-0.0348835,0.160478,-0.3716493,0.3461166,0.8564972
3.222037792,0.004306266,-0.0348835,0.09940146,-0.367289,0.3519686,0.8565197
3.224546909,-0.1190135,0.08505853,0.03832492,-0.3682401,0.3480702,0.8579391
3.227056503,-0.1190135,-0.09485453,0.09940146,-0.3711774,0.3456378,0.8540725
3.22956562,0.06596617,-0.1548255,0.3437076,-0.3706651,0.3456298,0.8579345
3.232074738,-0.05735363,0.02508752,-0.02275162,-0.3692379,0.3446752,0.8525981
3.234584808,-0.1190135,-0.09485453,-0.2059812,-0.3638729,0.3466317,0.8554743
3.237094402,-0.1806734,0.02508752,0.2215545,-0.3677779,0.3475951,0.8540647
3.239603519,-0.3039932,-0.09485453,0.160478,-0.3677298,0.3456336,0.8603277
3.242112637,-0.1190135,0.08505853,-0.02275162,-0.36677,0.3436984,0.8574017
3.244622231,-0.05735363,0.2050006,-0.2670578,-0.3711847,0.3500133,0.8550816
3.247131348,0.06596617,0.02508752,-0.02275162,-0.3667755,0.3495308,0.8593915
3.249640942,0.004306266,-0.0348835,0.09940146,-0.368709,0.3475761,0.8603543
3.252150059,-0.05735363,-0.0348835,0.03832492,-0.3701859,0.3500069,0.8589398
3.254659653,-0.1190135,-0.1548255,-0.1449047,-0.3677857,0.3490556,0.8535957
3.25716877,-0.1806734,0.02508752,-0.08382816,-0.369185,0.3431977,0.8598322
3.25716877,-0.1806734,0.02508752,-0.08382816,-0.369185,0.3431977,0.8598322
3.259677887,0.004306266,-0.2147966,0.09940146,-0.3707048,0.3490458,0.8536187
3.262187958,-0.1190135,-0.1548255,0.09940146,-0.3673298,0.348583,0.8487548
3.264697552,-0.2423333,-0.0348835,-0.2059812,-0.3673134,0.3505202,0.8521564
3.267206669,-0.2423333,0.02508752,-0.08382816,-0.3677186,0.3451435,0.8617726
3.269715786,-0.1190135,-0.0348835,-0.08382816,-0.3653212,0.3471084,0.8574234
3.274734497,-0.05735363,-0.0348835,-0.02275162,-0.3677709,0.3505076,0.8565093
3.274734497,-0.05735363,-0.0348835,-0.02275162,-0.3677709,0.3505076,0.8565093
3.277244091,-0.1190135,0.02508752,-0.02275162,-0.3712005,0.3519627,0.8536509
3.279753208,-0.05735363,0.08505853,-0.2059812,-0.3668,0.3471107,0.8545356
3.282262802,-0.1806734,0.02508752,-0.1449047,-0.3682707,0.3485676,0.8535948
3.28728199,0.004306266,0.1450296,-0.08382816,-0.3677892,0.3471135,0.8521271
3.28728199,0.004306266,0.1450296,-0.08382816,-0.3677892,0.3471135,0.8521271
3.289791107,0.1276261,0.2050006,-0.02275162,-0.3672799,0.3480783,0.8559985
3.292300701,0.06596617,0.2649716,0.03832492,-0.3682443,0.3422414,0.8544996
3.294809818,-0.05735363,0.08505853,-0.08382816,-0.366311,0.3432245,0.8530442
3.297318935,0.1276261,-0.09485453,-0.1449047,-0.370231,0.3500239,0.8521746
3.299828529,0.004306266,0.08505853,-0.08382816,-0.3692235,0.3441839,0.8545262
3.302337647,0.004306266,0.2649716,-0.1449047,-0.3672899,0.3461387,0.8535635
3.304847241,0.004306266,0.1450296,-0.02275162,-0.3663066,0.3500249,0.8569763
3.307356834,0.004306266,-0.0348835,-0.02275162,-0.3673145,0.3539217,0.8536393
3.309865952,0.189286,0.08505853,-0.1449047,-0.3662832,0.3456434,0.8583833
3.312375069,0.06596617,0.2649716,-0.08382816,-0.3692502,0.3485667,0.852636
3.314884186,0.06596617,0.2649716,-0.02275162,-0.3682475,0.3422427,0.8540164
3.317394257,0.004306266,0.3849136,-0.1449047,-0.3672737,0.3471043,0.8564723
3.319903851,0.004306266,0.1450296,-0.1449047,-0.3692431,0.3524509,0.8555732
3.322412968,-0.1190135,0.1450296,0.03832492,-0.3687649,0.3509981,0.8536223
3.324922085,0.06596617,0.1450296,-0.2059812,-0.3658157,0.3475956,0.8564656
3.327431679,-0.05735363,0.2649716,-0.2059812,-0.367782,0.3519694,0.855557
3.329940796,-0.05735363,0.1450296,-0.02275162,-0.369722,0.350017,0.8555533
3.33245039,-0.1190135,0.1450296,-0.2059812,-0.3716194,0.3417326,0.8588707
3.334959507,-0.1190135,0.2050006,-0.08382816,-0.3653454,0.3466317,0.8535529
3.337469101,0.004306266,-0.0348835,-0.08382816,-0.3711928,0.3495306,0.8536272
3.339978218,0.004306266,-0.0348835,-0.08382816,-0.3672959,0.3490561,0.8540751
3.342488289,-0.05735363,0.2050006,-0.02275162,-0.3668079,0.3485713,0.8540666
3.344997406,0.004306266,0.08505853,-0.02275162,-0.3692546,0.3509977,0.8531429
3.347507,-0.1190135,0.1450296,-0.08382816,-0.3711658,0.3470911,0.8565029
3.350016117,-0.05735363,0.2649716,0.03832492,-0.3658365,0.3480893,0.8535709
3.352525234,-0.1190135,0.02508752,-0.2059812,-0.3692264,0.3461285,0.8550284
3.355034828,-0.1190135,0.1450296,-0.2059812,-0.3682421,0.3456416,0.8564658
3.357543945,-0.1190135,0.02508752,-0.2059812,-0.3697124,0.3490418,0.8565103
3.360053539,-0.2423333,0.02508752,-0.2059812,-0.3672922,0.3519698,0.8560364
3.362562656,0.06596617,0.2649716,0.03832492,-0.3687842,0.3510053,0.850723
3.36507225,-0.05735363,0.08505853,-0.02275162,-0.3697417,0.3471093,0.8511759
3.367581368,-0.1806734,0.02508752,-0.08382816,-0.3663424,0.3480949,0.8506754
3.370091438,-0.05735363,-0.0348835,-0.08382816,-0.3677921,0.3490581,0.8526292
3.372600556,-0.1806734,0.08505853,0.03832492,-0.3702152,0.3480745,0.8536054
3.375110149,0.004306266,-0.09485453,-0.02275162,-0.3673185,0.3490645,0.8506926
3.377619743,-0.1806734,-0.0348835,-0.02275162,-0.3702356,0.3514832,0.8521888
3.380128384,-0.2423333,0.08505853,0.03832492,-0.3677453,0.3495263,0.8598824
3.382637978,-0.1190135,0.1450296,-0.08382816,-0.3633781,0.3480878,0.8574176
3.385147095,-0.1806734,-0.09485453,-0.2059812,-0.3663258,0.3510039,0.8545696
3.387656689,-0.2423333,-0.09485453,-0.08382816,-0.3653421,0.3476021,0.8545288
3.390165806,-0.1806734,0.02508752,-0.02275162,-0.368265,0.3437068,0.8520977
3.3926754,-0.3039932,-0.2147966,-0.08382816,-0.3672866,0.3471091,0.8545394
3.395184994,-0.05735363,-0.09485453,-0.02275162,-0.3672783,0.3485636,0.8564865
3.397694588,0.06596617,0.2649716,-0.1449047,-0.3716906,0.3500189,0.8521861
3.400203705,-0.1806734,0.02508752,-0.08382816,-0.3692196,0.3480693,0.8569803
3.402713299,0.1276261,0.02508752,0.03832492,-0.3706934,0.3495274,0.8555562
3.405222416,-0.2423333,0.08505853,-0.1449047,-0.3663373,0.3495506,0.8521393
3.407731533,-0.1806734,0.02508752,-0.2059812,-0.3697283,0.3509912,0.8550796
3.410241127,-0.05735363,-0.09485453,-0.08382816,-0.3687558,0.3471078,0.8531012
3.412750244,-0.1806734,-0.09485453,0.03832492,-0.3677492,0.3456408,0.8574283
3.415259838,-0.1190135,0.02508752,-0.02275162,-0.3692342,0.347589,0.8545594
3.417768955,-0.05735363,0.02508752,0.09940146,-0.3677665,0.3480767,0.8560023
3.420278549,-0.1190135,0.1450296,-0.08382816,-0.3682683,0.3529394,0.8560535
3.422788143,-0.1806734,0.2050006,-0.2059812,-0.3677875,0.3475987,0.852615
3.425297737,-0.05735363,0.02508752,-0.02275162,-0.365851,0.3485806,0.8516428
3.427806854,-0.05735363,-0.1548255,-0.1449047,-0.3687402,0.3441868,0.8540392
3.430316448,-0.1806734,-0.0348835,-0.1449047,-0.3697306,0.3466193,0.8526208
3.432825565,-0.1190135,0.02508752,-0.1449047,-0.3686886,0.3441674,0.8617707
3.435334683,-0.2423333,0.02508752,-0.08382816,-0.3667822,0.3475899,0.8574396
3.437844277,-0.1806734,-0.09485453,-0.1449047,-0.3682912,0.3510046,0.8516856
3.440353394,-0.1806734,-0.09485453,-0.02275162,-0.3702337,0.3529401,0.8531695
3.442862988,-0.1806734,0.08505853,-0.1449047,-0.3648506,0.3480878,0.8554962
3.445372105,-0.05735363,0.3849136,-0.08382816,-0.3658484,0.3446927,0.8501552
3.447882176,-0.05735363,0.2050006,-0.02275162,-0.3672642,0.3461289,0.8574293
3.450391293,-0.05735363,0.02508752,-0.08382816,-0.3638626,0.3505147,0.8588948
3.452900887,-0.05735363,0.02508752,-0.2670578,-0.3658411,0.3495487,0.8535852
3.455410004,-0.2423333,0.1450296,-0.2059812,-0.3682757,0.3471119,0.8521309
3.457919598,-0.2423333,0.1450296,-0.2059812,-0.3673203,0.3476076,0.8497118
3.460428715,-0.1190135,0.2050006,-0.08382816,-0.3687511,0.3466202,0.8535797
3.462937832,-0.1806734,0.1450296,-0.2670578,-0.3702388,0.3514844,0.8517056
3.465447426,-0.2423333,0.02508752,-0.3281343,-0.3716748,0.3480696,0.8536168
3.467956543,-0.2423333,0.2050006,-0.08382816,-0.3692322,0.3500175,0.8560327
3.470466137,-0.2423333,0.02508752,-0.1449047,-0.3677575,0.3441864,0.8554812
3.472975254,-0.2423333,0.1450296,-0.2059812,-0.3668224,0.3480909,0.8516457
3.475485325,-0.1806734,0.2649716,-0.2670578,-0.3702141,0.3446731,0.8521225
3.477994442,-0.05735363,0.2050006,-0.2670578,-0.3711725,0.3461219,0.8550437
3.480504036,-0.3039932,0.1450296,-0.08382816,-0.3692097,0.350009,0.8594154
3.483013153,-0.2423333,0.02508752,-0.1449047,-0.3668033,0.3471119,0.8540524
3.485522747,-0.3656531,-0.0348835,-0.2059812,-0.36631,0.3490545,0.8560003
3.488031864,-0.1806734,-0.0348835,-0.08382816,-0.3638956,0.3456685,0.851599
3.490540981,-0.1190135,0.1450296,-0.08382816,-0.3682414,0.3504999,0.8589292
3.493050575,-0.2423333,0.1450296,-0.1449047,-0.369215,0.34661,0.8569661
3.495559692,-0.2423333,-0.0348835,-0.1449047,-0.3677675,0.3514781,0.8574852
3.498069286,-0.1806734,0.2050006,-0.08382816,-0.3663453,0.3500395,0.8511776
3.500578404,-0.3039932,0.2050006,-0.08382816,-0.366797,0.3461379,0.8545261
3.503088474,-0.3039932,0.1450296,-0.08382816,-0.3711574,0.3495172,0.8589426
3.505597592,-0.2423333,0.2649716,-0.08382816,-0.3691947,0.3432013,0.8583825
3.508107185,-0.1190135,0.08505853,-0.08382816,-0.3682328,0.3436947,0.85693
3.510616303,-0.1806734,0.2050006,-0.1449047,-0.3633783,0.3471162,0.856925
3.513125897,-0.1190135,0.08505853,-0.2059812,-0.3687264,0.3500119,0.8589283
3.515635014,0.004306266,0.08505853,-0.1449047,-0.366775,0.3422427,0.8559378
3.518144131,-0.1190135,0.08505853,-0.1449047,-0.3696891,0.3436885,0.8574247
3.520653725,-0.1806734,0.02508752,-0.2670578,-0.3657792,0.3441809,0.8602982
3.523162842,-0.05735363,0.1450296,-0.2059812,-0.3633547,0.3437063,0.8588246
3.525672436,0.004306266,0.1450296,-0.1449047,-0.3702123,0.34613,0.8531032
3.528181553,0.004306266,0.08505853,-0.08382816,-0.371204,0.3500206,0.8521823
3.530691624,-0.05735363,0.3249426,-0.08382816,-0.3677809,0.348568,0.8540742
3.533200741,0.004306266,0.3849136,-0.08382816,-0.3682258,0.3475789,0.8598673
3.535710335,-0.1190135,0.3849136,-0.1449047,-0.3682688,0.3500244,0.8545755
3.538219452,0.004306266,0.2649716,-0.1449047,-0.3662913,0.3451606,0.8569289
3.540729046,-0.1190135,0.2649716,-0.2670578,-0.3731328,0.3475782,0.8536236
3.543238163,-0.05735363,0.2649716,-0.1449047,-0.369746,0.3505119,0.8521755
3.54574728,0.06596617,0.3849136,-0.1449047,-0.3687524,0.3480783,0.8540771
3.548256874,0.06596617,0.2050006,-0.2059812,-0.3662657,0.3441792,0.860302
3.550765991,0.004306266,0.3849136,-0.02275162,-0.3706589,0.343684,0.8579155
3.553275585,0.1276261,0.3249426,0.03832492,-0.3716701,0.347582,0.8540953
3.555785179,0.06596617,0.3249426,0.03832492,-0.3707016,0.3490446,0.8541019
3.558294773,0.004306266,0.2050006,-0.02275162,-0.3736092,0.3504879,0.8565552
3.56080389,-0.1806734,0.1450296,-0.08382816,-0.3672936,0.3432249,0.8516021
3.563313484,0.1276261,0.1450296,-0.02275162,-0.3677782,0.3456517,0.8530793
3.565822601,0.1276261,0.2050006,0.03832492,-0.3736017,0.3470841,0.8560387
3.568332195,0.1276261,0.2649716,-0.08382816,-0.3726299,0.3495171,0.8570213
3.570841313,-0.1190135,0.1450296,-0.1449047,-0.3653131,0.3475912,0.8588778
3.57335043,-0.05735363,0.2050006,-0.1449047,-0.368221,0.3470913,0.8603457
3.575860024,-0.05735363,0.2050006,-0.02275162,-0.369202,0.3475769,0.8593917
3.578369141,-0.1190135,0.3249426,-0.2059812,-0.3682474,0.3432143,0.8545091
3.580878735,0.1276261,0.4448847,-0.2670578,-0.3653169,0.3437058,0.8564239
3.583388329,0.06596617,0.08505853,-0.2059812,-0.3653471,0.3461464,0.853065
3.585897923,-0.05735363,0.08505853,-0.2059812,-0.373119,0.3534033,0.8585126
3.58840704,0.004306266,0.2050006,-0.2059812,-0.3672626,0.3456425,0.8574245
3.590916634,-0.1190135,0.2050006,-0.1449047,-0.3677705,0.3432196,0.8530557
3.593425751,0.004343655,0.3248782,-0.1448592,-0.3716633,0.3495229,0.8560471
3.595935345,-0.1189775,0.1448631,-0.2058902,-0.3711898,0.3485577,0.8536177
3.598444462,-0.1189401,0.02487554,-0.2058255,-0.3653517,0.3476057,0.8530792
3.600953579,-0.05724287,0.2047808,-0.2668374,-0.3653581,0.3476081,0.8521127
3.603463173,-0.1805447,0.3846295,-0.08352395,-0.3701865,0.3461203,0.856969
3.60597229,-0.180488,0.2045956,-0.08349771,-0.372157,0.3446653,0.852621
3.608482361,0.004548439,0.2645023,-0.144548,-0.3726377,0.3509777,0.8565522
3.610991478,0.004547011,0.1444772,-0.1445026,-0.3682368,0.3490407,0.858915
3.613501072,-0.1187742,0.1444318,-0.1444572,-0.3711714,0.3427204,0.8535609
3.616010189,0.004582896,0.1443865,-0.02225876,-0.3726176,0.3456256,0.8569834
3.618519783,0.004581456,0.2642831,-0.0833283,-0.3682494,0.3407858,0.8530358
3.6210289,-0.1187398,0.1442581,0.03885096,-0.366833,0.3524676,0.8521715
3.623538494,-0.05704258,0.1442128,-0.2054674,-0.3697252,0.3500183,0.8550701
3.626047611,-0.1803445,0.2041385,-0.2664794,-0.3736134,0.3446591,0.8531157
3.628556729,-0.1802878,-0.09578077,-0.2053191,-0.3731588,0.3466162,0.849265
3.631066322,-0.1802312,0.08416238,-0.08310156,-0.3677748,0.3466222,0.8540552
3.633576393,-0.1801745,0.144107,0.1001542,-0.3677716,0.346621,0.8545384
3.63608551,-0.1801179,-0.03585137,0.1001227,-0.3706962,0.3422405,0.8516194
3.638594628,-0.05674155,-0.09581113,-0.08313837,-0.3662982,0.342248,0.8544844
3.641104221,-0.1183836,-0.09578103,-0.2663419,-0.3672993,0.3480856,0.8530992
3.643613339,-0.05668654,-0.03577991,-0.2051817,-0.3711881,0.3490429,0.8541057
3.646122933,-0.1183286,0.1441444,-0.1440407,-0.3672593,0.346613,0.8584004
3.64863205,-0.1182915,0.02415706,-0.2050719,-0.366299,0.3475928,0.8569526
3.651141644,0.005065509,0.08412049,-0.143931,-0.3706911,0.3538992,0.8580151
3.653650761,0.005063917,0.1440651,-0.08280922,-0.3702088,0.3480721,0.8545718
3.656159878,-0.1799174,0.1440198,-0.1438597,-0.3682704,0.3505108,0.8545802
3.658669472,-0.05654105,0.02403254,-0.2048911,-0.3697175,0.3475861,0.8550465
3.661179543,-0.1798431,0.02402499,-0.2048267,-0.3716452,0.3417423,0.8550049
3.66368866,-0.1797866,0.02401745,-0.0826093,-0.3687399,0.3461301,0.8550246
3.666197777,0.06690949,-0.1559032,0.03956974,-0.3672909,0.3505117,0.855539
3.668707371,0.06688847,0.02405888,-0.08259577,-0.3696905,0.3451466,0.8579221
3.671216488,-0.05645234,0.02405132,-0.08256982,-0.3697114,0.3456403,0.8550275
3.673726082,-0.05643461,0.08401478,-0.204697,-0.365816,0.3456523,0.8554801
3.676235199,0.005243024,0.2039304,-0.1435561,-0.3672965,0.3451694,0.8521043
3.67874527,0.005241377,0.2638374,-0.02135794,-0.3653566,0.3471217,0.8521079
3.68125391,0.06689963,0.1438125,-0.02135123,-0.3701896,0.3470932,0.8569785
3.683763027,0.005218713,0.1437673,-0.02134453,-0.3701922,0.350981,0.858466
3.686272621,-0.05644283,0.08375109,0.03973872,-0.3702071,0.3485574,0.8550597
3.688782692,0.005234806,-0.03621726,0.03972624,-0.3706856,0.3480668,0.8560253
3.691291809,-0.05642674,0.02376514,-0.1435159,-0.3672672,0.3471018,0.8574387
3.693800926,-0.1180689,0.02375767,-0.08239423,-0.3663183,0.3476,0.8540533
3.69631052,0.005287981,-0.09619184,0.1008613,-0.3702105,0.3475869,0.8540838
3.698819637,0.06694622,-0.03619059,0.1008296,-0.3721442,0.3446605,0.8545539
3.701329231,0.1285851,0.08376281,0.1007979,-0.3658448,0.3466349,0.8516238
3.703838349,0.1285447,0.0837365,-0.02138684,-0.3687247,0.3504971,0.8594163
3.706347943,0.005184508,0.1436812,-0.02138012,-0.367768,0.3485631,0.856007
3.70885706,-0.1181369,0.08366505,-0.02137341,-0.3712015,0.3461328,0.8506947
3.711366177,-0.1180998,0.08363877,-0.08244323,-0.3706951,0.3490421,0.8550683
3.713876248,-0.1180627,0.2035545,-0.08241732,-0.3682909,0.3529479,0.852671
3.716385842,0.005294186,0.08354855,-0.2045445,-0.3663264,0.3471172,0.8525988
3.718894959,-0.05636738,0.2034643,-0.08232717,-0.367783,0.3451677,0.8521081
3.721404076,-0.1180096,0.1434294,-0.08230131,-0.3667921,0.3466219,0.8554972
3.72391367,-0.2412923,0.3232974,-0.08227546,-0.3667907,0.3451638,0.8549998
3.726422787,-0.2412165,0.2632248,-0.3265558,-0.3682325,0.345638,0.8579154
3.728932381,-0.05616101,0.2031711,-0.2653766,-0.369739,0.3441931,0.8501811
3.731441498,-0.3644429,0.1431362,-0.08206365,-0.3663056,0.3466235,0.8554934
3.733951092,-0.2410086,0.1430913,-0.2652675,-0.3687587,0.3490524,0.8536034
3.736460209,0.005706741,0.02310429,-0.3262607,-0.3702124,0.3451583,0.8526105
3.73897028,0.06736485,0.2629811,-0.1429286,-0.3672761,0.3417607,0.8535208
3.741479397,-0.117636,0.2628985,-0.02073059,-0.3662786,0.3441841,0.8583691
3.743988991,0.005720741,0.1428739,-0.08180062,-0.3697098,0.3451539,0.8550228
3.746498108,0.06737884,0.262771,-0.1428515,-0.3711867,0.3475848,0.8536083
3.749007225,-0.117622,0.2626885,0.04042304,-0.3682371,0.3470973,0.8579296
3.751516819,-0.05592517,0.2026349,-0.3260489,-0.3667694,0.3475851,0.8593726
3.754025936,-0.1792274,0.2025713,-0.2037934,-0.3687586,0.350024,0.8540961
3.75653553,-0.1175112,0.1425366,-0.08157629,-0.3672826,0.3519662,0.8574861
3.759044647,0.06750542,0.3224049,-0.2037037,-0.3696888,0.3456318,0.8584101
3.761554241,0.1291441,0.3822746,-0.02041013,-0.368223,0.3446627,0.8588724
3.764063358,0.005783741,0.1422704,-0.02040371,-0.370685,0.3519535,0.8579961
3.766573429,0.005781924,0.3221388,-0.1425504,-0.3696963,0.3490357,0.8589264
3.769082546,0.06744001,0.4419796,-0.1425056,-0.3687431,0.3461313,0.8545414
3.77159214,-0.05590098,0.2019567,-0.2646139,-0.3653512,0.3505207,0.8545573
3.774101258,-0.05588342,0.1419223,-0.08130115,-0.3687413,0.3475882,0.855522
3.776610375,0.005794039,0.2618197,-0.2034287,-0.3692227,0.3490422,0.8569897
3.779119969,0.005792219,0.2617374,-0.0812117,-0.3677521,0.3475854,0.8579305
3.781629086,-0.0558695,0.3815973,-0.2033393,-0.3677597,0.3500176,0.8579542
3.78413868,-0.1175118,0.3814774,-0.2032754,-0.367283,0.3490512,0.856008
3.786647797,0.005844869,0.2614155,-0.142135,-0.3672579,0.3451549,0.857903
3.789157391,-0.05581687,0.2613333,0.04113928,-0.3696772,0.3480568,0.8613331
3.791666508,-0.05579933,0.2612512,-0.2031798,-0.3701736,0.3461154,0.8589019
3.794176579,-0.0557818,0.2011982,-0.3252691,-0.3692568,0.3475975,0.8511769
3.796685696,0.06755552,0.261106,-0.1419372,-0.3682626,0.3490504,0.8550492
3.79919529,0.1291942,0.320995,-0.1418927,-0.3662892,0.3485608,0.8588949
3.801704407,0.1291536,0.2009521,-0.08077154,-0.3663023,0.3466223,0.8559766
3.804213524,0.06745314,0.320831,-0.2028992,-0.3721805,0.3490469,0.851214
3.806723118,0.005772045,0.2007882,-0.141759,-0.369735,0.3490503,0.8531278
3.809232235,0.12909,0.5605512,-0.1417144,-0.3716745,0.3500129,0.8546022
3.811741829,0.1290495,0.4404331,-0.01951683,-0.3750661,0.3475668,0.8555717
3.8142519,0.06734904,0.2603816,-0.1416638,-0.3687395,0.3480734,0.85601
3.81676054,0.06732788,0.1403578,-0.2637723,-0.367256,0.3466117,0.8588836
3.819270134,0.06730673,0.3801978,-0.1415364,-0.3682882,0.3500317,0.8516761
3.821779728,0.1906054,0.4400494,-0.1414919,-0.3682742,0.3466254,0.8521262
3.824288845,0.1905455,0.2599981,-0.08037094,-0.3745765,0.3465956,0.8555584
3.826798439,0.2521455,0.2599164,-0.0803457,-0.3692117,0.3475805,0.857942
3.829307556,0.2520663,0.3198057,-0.2024735,-0.3677682,0.3475915,0.8555143
3.831816673,0.4369668,0.3197053,-0.01918031,-0.3716647,0.350981,0.8565446
3.834326267,0.2518499,0.3196048,-0.08025081,-0.3721167,0.345136,0.8589076
3.836835385,0.2517707,0.2595334,-0.08022561,-0.3697172,0.3495294,0.8560318
3.839344979,0.2516916,0.1994808,-0.01912387,-0.3692037,0.3470916,0.8589036
3.841854096,0.1282928,0.1394472,-0.1412709,-0.3692807,0.3490641,0.8482916
3.84436369,0.1282525,0.2593454,-0.2023031,-0.3702166,0.3495326,0.8541028
3.846873284,0.06655227,0.07935085,-0.141163,-0.3716986,0.3505078,0.8512244
3.849382878,-0.05678843,0.07932592,-0.08004211,-0.3711883,0.3480712,0.853613
3.851891995,0.0665492,0.079301,-0.01894043,-0.3697097,0.3461256,0.8555154
3.854401589,0.1281882,0.01930507,-0.01893448,-0.3706796,0.3451494,0.8555136
3.856910706,-0.05683177,-0.04067202,-0.1410816,-0.3702003,0.3504982,0.8570116
3.859419823,-0.2417936,-0.04065924,-0.2021138,-0.3658054,0.3514786,0.8598861
3.861929417,-0.1800578,0.1392666,-0.2020503,-0.3682802,0.3495429,0.8526378
3.864438534,-0.1183413,0.1392228,-0.32414,-0.370201,0.3466116,0.8550408
3.871966839,-0.05653115,-0.1007359,-0.2628539,-0.3711701,0.3504937,0.8575025
3.874476433,-0.3648129,0.3190929,-0.1406183,-0.3667792,0.346617,0.8574302
3.876986027,-0.3646983,0.1390796,-0.07949754,-0.3697046,0.3475812,0.8569794
3.879495144,-0.3029238,-0.1008482,-0.1405491,-0.3687032,0.343687,0.85935
3.882004738,-0.2411687,-0.04084548,-0.140505,-0.3701931,0.345151,0.8555098
3.884513855,-0.241093,0.2590224,-0.2015374,-0.3687522,0.3500216,0.8550625
3.887022972,-0.3026771,0.138999,-0.201474,-0.36434,0.3475945,0.8588701
3.889532566,-0.3025821,-0.1009287,0.04289542,-0.3667557,0.3422354,0.8588372
3.892041683,-0.1175073,-0.100897,-0.2014242,-0.3692443,0.3446776,0.8516316
3.894551277,-0.1174704,0.07904775,-0.2013609,-0.3721408,0.3456309,0.8555298
3.897060394,-0.1174335,-0.04091912,-0.0791446,-0.3701563,0.3436796,0.8603278
3.899570465,-0.1173966,0.1390068,-0.2623493,-0.3701609,0.3451389,0.8603421
3.902079582,-0.1790196,0.1989341,-0.3233435,-0.3677872,0.3495421,0.8536004
3.904589176,-0.1789634,0.1389006,-0.2621653,-0.3682616,0.3446772,0.8530737
3.907098294,-0.240567,0.07888597,-0.07885337,-0.3658341,0.3432298,0.8515906
3.909607887,-0.1171717,0.1988032,-0.01775206,-0.3677925,0.3461431,0.8511512
3.912117005,-0.05547494,-0.2210564,-0.01774649,-0.3711718,0.3500085,0.8570145
3.914626122,-0.1171174,-0.2209869,-0.139894,-0.3677274,0.3407741,0.8583474
3.917135716,-0.3020603,0.01896658,-0.01769696,-0.3672563,0.3446684,0.8578982
3.919644833,-0.2403055,0.07893164,-0.1398445,-0.3721285,0.3417394,0.8554919
3.922154427,-0.1169102,0.01893583,-0.01764747,-0.3726585,0.3422399,0.8492185
3.922154427,-0.1169102,0.01893583,-0.01764747,-0.3726585,0.3422399,0.8492185
3.927173615,-0.05521563,-0.1010558,-0.07867454,-0.3677475,0.3461261,0.8579163
3.927173615,-0.05521563,-0.1010558,-0.07867454,-0.3677475,0.3461261,0.8579163
3.929682732,0.06812152,0.07888901,-0.01757329,-0.3712105,0.350023,0.8512158
3.932192326,-0.1168796,0.1988063,0.1656619,-0.3726192,0.3461121,0.8569881
3.934701443,-0.1785028,0.1387728,0.1045333,-0.367754,0.3451568,0.8564572
3.937211037,0.00653301,-0.04118386,-0.07872919,-0.368287,0.3476019,0.850686
3.939720154,-0.05512894,-0.04117092,-0.139781,-0.3657945,0.3490452,0.8603455
3.942229271,-0.1784314,-0.101129,-0.1397371,-0.3697169,0.3514727,0.8570173
3.944738865,-0.1167155,0.1387869,0.04353644,-0.3716823,0.3514735,0.8541332
3.947247982,-0.1783387,-0.04116982,0.04352276,-0.3726229,0.3431983,0.8550267
3.949757576,-0.1166228,0.07878515,-0.07864399,-0.3726276,0.3436859,0.8545483
3.952267647,0.006733665,0.1387314,0.04353379,-0.3682454,0.3456428,0.8559825
3.954776764,0.00673155,0.1986589,-0.1397095,-0.3672499,0.344666,0.8588647
3.957285881,-0.1782503,0.1386254,-0.1396656,-0.3682592,0.3500208,0.8560251
3.959795475,-0.05487446,0.1985529,-0.01746866,-0.3692339,0.3495323,0.8555448
3.962304592,-0.3014968,-0.1013646,-0.01746317,-0.368754,0.3485647,0.8540819
3.964814186,-0.363062,0.2584934,-0.07853422,-0.36777,0.3461346,0.8545337
3.967323303,-0.1779682,0.07849912,-0.01743301,-0.3711777,0.3436945,0.8530871
3.969832421,-0.2395722,0.07847445,-0.07850407,-0.3648289,0.3422493,0.8559225
3.972342015,-0.1161772,-0.04149223,-0.07847941,-0.366302,0.3485657,0.8569621
3.974852085,-0.2394605,0.07846283,-0.01737822,-0.3692417,0.3509928,0.8550758
3.977361202,-0.3010451,0.1384092,-0.1395258,-0.369708,0.3466108,0.8560034
3.979870796,-0.05431097,0.1983368,-0.139482,-0.3702152,0.3480745,0.8536054
3.982379914,-0.2392736,0.01836138,-0.0172851,-0.3677759,0.3500236,0.8555381
3.984889031,-0.3008583,-0.04161541,-0.07835621,-0.3716286,0.3446512,0.8588991
3.987398624,-0.1157841,0.0783397,-0.01725506,-0.3677749,0.3456506,0.8535625
3.989907742,-0.05408785,0.01834407,-0.07832617,-0.3672766,0.3490488,0.8569745
3.992417336,-0.1157308,-0.04163271,-0.01722503,-0.3673289,0.3544129,0.8517111
3.994926453,-0.1156944,0.2582355,-0.1393727,-0.3678033,0.3495481,0.8511843
3.99743557,-0.1156581,0.07824127,-0.1393289,-0.3692499,0.35051,0.8536214
3.999945164,-0.1156217,-0.04172534,-0.2003617,-0.3653356,0.3475997,0.8554953
4.002454281,-0.1155854,0.01825879,-0.01706912,-0.3677521,0.3475854,0.8579305
4.004964352,-0.05388918,0.2581371,-0.07814029,-0.3677717,0.3456493,0.8540457
4.007473946,-0.1155322,0.258056,-0.1391923,-0.3672742,0.3441893,0.8549942
4.009983063,-0.1771558,0.01809089,-0.01699548,-0.3672746,0.3514773,0.8584478
4.01249218,-0.1771001,0.07805622,-0.2002198,-0.3687311,0.3504995,0.8584498
4.015001774,0.06959514,0.1979737,-0.3223099,-0.370183,0.3480624,0.8584376
4.017510891,0.06957328,0.2578826,-0.1389791,-0.3697316,0.3500207,0.8541037
4.020020485,0.1312113,0.07788848,-0.2000119,-0.3702089,0.3471004,0.8540791
4.022529602,0.0695102,0.07786401,-0.1388726,-0.3711642,0.3475763,0.8569908
4.025038719,0.007828458,0.01786854,0.04440068,-0.369745,0.3471105,0.8506927
