Time (s),Gyroscope X (deg/s),Gyroscope Y (deg/s),Gyroscope Z (deg/s),Accelerometer X (g),Accelerometer Y (g),Accelerometer Z (g)
0,-0.1428319,-0.7708032,-0.2320606,-0.4937814,0.2420433,0.8312204
0.007531643,0.04228127,-0.7108852,-0.1710764,-0.4918555,0.2376524,0.8331317
0.007531643,0.04228127,-0.7108852,-0.1710764,-0.4918555,0.2376524,0.8331317
0.010042191,0.1039857,-0.8307213,-0.2930447,-0.492319,0.2425327,0.8365696
0.012552738,0.1039857,-0.6509671,-0.1100923,-0.4903614,0.2425133,0.8351133
0.015063286,-0.08112751,-0.6509671,-0.1100923,-0.4869734,0.2381199,0.8404264
0.020084858,-0.01942312,-0.531131,-0.1100923,-0.4889467,0.2347218,0.8379698
0.020084858,-0.01942312,-0.531131,-0.1100923,-0.4889467,0.2347218,0.8379698
0.022595406,0.1039857,-0.4712129,-0.1710764,-0.4864992,0.2351891,0.8379751
0.025105953,0.1039857,-0.4112948,0.01187601,-0.4913605,0.2396071,0.8375196
0.027616024,0.2273944,-0.591049,0.07286017,-0.4918501,0.2396123,0.8380051
0.030126572,0.1039857,-0.6509671,-0.1710764,-0.4894356,0.2347256,0.8379694
0.032637119,-0.01942312,-0.591049,-0.04910814,-0.4903684,0.2410492,0.8336446
0.035148144,0.2890988,-0.591049,0.01187601,-0.4908683,0.2395968,0.8350907
0.037658691,0.5359164,-0.6509671,0.07286017,-0.4938084,0.2386478,0.8355671
0.040169239,0.474212,-0.8307213,0.01187601,-0.4889324,0.2371567,0.8384743
0.042679787,0.474212,-0.7708032,0.01187601,-0.4854618,0.243439,0.831723
0.045190811,0.2890988,-0.7108852,0.01187601,-0.4849845,0.2419801,0.8336555
0.047700405,0.1039857,-0.3513767,-0.04910814,-0.485997,0.2371296,0.8370186
0.050211906,0.16569,-0.4712129,0.01187601,-0.4908773,0.2391217,0.8394596
0.052721977,0.3508032,-0.591049,0.07286017,-0.4908452,0.2439851,0.8380393
0.055232525,0.474212,-0.7108852,0.01187601,-0.4899028,0.2391204,0.8418896
0.057743073,0.474212,-0.7108852,0.07286017,-0.4923319,0.2410802,0.8394735
0.060254097,0.474212,-0.591049,0.07286017,-0.4918511,0.2391217,0.8365438
0.062764645,0.5359164,-0.6509671,-0.04910814,-0.4845009,0.2429717,0.8419229
0.065275192,0.3508032,-0.4712129,-0.04910814,-0.4859779,0.2405406,0.8385023
0.067785263,0.16569,-0.7108852,-0.1710764,-0.4869562,0.2390713,0.8321743
0.070295811,0.2890988,-0.7108852,0.07286017,-0.4898628,0.2439683,0.834639
0.072806358,0.4125076,-0.4112948,0.07286017,-0.4937973,0.2410892,0.8385009
0.075316906,0.4125076,-0.531131,0.07286017,-0.4957245,0.2464678,0.8419417
0.07782793,0.2890988,-0.6509671,-0.04910814,-0.4932629,0.2488782,0.8405043
0.080338478,0.2890988,-0.7108852,-0.04910814,-0.4908334,0.2439618,0.8292939
0.082849026,0.5976207,-0.591049,-0.04910814,-0.4947605,0.2420536,0.8321916
0.085359573,0.6593251,-0.591049,-0.04910814,-0.4908626,0.2410634,0.8375311
0.087869644,0.3508032,-0.591049,0.01187601,-0.4864595,0.2425005,0.8419179
0.090380192,0.16569,-0.6509671,0.01187601,-0.4864305,0.245892,0.8361137
0.092891216,0.2890988,-0.531131,-0.1100923,-0.4864335,0.2454053,0.8361099
0.095401764,0.2273944,-0.531131,-0.04910814,-0.4927902,0.244965,0.8346445
0.097912312,0.1039857,-0.591049,0.07286017,-0.495246,0.2440212,0.8385223
0.100422859,-0.01942312,-0.7708032,0.1338443,-0.4956996,0.2478969,0.8302922
0.102933407,0.1039857,-0.6509671,-0.04910814,-0.4937667,0.2449701,0.8336722
0.105444431,0.3508032,-0.8307213,0.07286017,-0.4903935,0.2366647,0.8321534
0.107954502,0.2273944,-0.7708032,0.01187601,-0.4869938,0.2337263,0.8355343
0.11046505,0.2273944,-0.8307213,-0.1100923,-0.4943412,0.2338116,0.8457326
0.112975597,0.3508032,-0.6509671,0.01187601,-0.4894019,0.2400783,0.8375246
0.115486145,0.16569,-0.7108852,-0.04910814,-0.4864729,0.2385859,0.8341144
0.117996693,-0.01942312,-0.7708032,-0.04910814,-0.4859974,0.2356526,0.8306913
0.120507717,0.04228127,-0.7708032,0.01187601,-0.487453,0.2390907,0.8380043
0.123018265,0.1039857,-0.6509671,0.07286017,-0.4928042,0.243022,0.8360872
0.125528812,-0.08112751,-0.6509671,0.07286017,-0.4864685,0.2400551,0.8375265
0.128038883,0.16569,-0.8906393,-0.04910814,-0.4854851,0.2405289,0.8355875
0.130549431,0.2890988,-0.9505574,-0.1100923,-0.4835242,0.2405031,0.8317019
0.133059979,0.2890988,-0.591049,-0.04910814,-0.4859637,0.2410053,0.8302464
0.135571003,0.16569,-0.7708032,-0.04910814,-0.488884,0.2444512,0.8361009
0.138081551,-0.01942312,-0.7708032,-0.1100923,-0.4898928,0.2400861,0.8389819
0.140592098,-0.01942312,-0.8307213,-0.1710764,-0.4879305,0.2410428,0.8385047
0.143102646,-0.08112751,-0.7108852,-0.1100923,-0.4869457,0.2424991,0.8399742
0.145613194,-0.1428319,-0.6509671,-0.04910814,-0.4849694,0.2453988,0.8380543
0.148123264,-0.2662407,-0.7108852,-0.1100923,-0.4864304,0.2468771,0.8404939
0.150634289,-0.3279451,-0.8307213,-0.1710764,-0.490336,0.2473896,0.8385516
0.153144836,-0.3896495,-0.6509671,-0.3540289,-0.4898544,0.2464149,0.8395162
0.155655384,-0.3279451,-0.4712129,-0.3540289,-0.4879012,0.2459114,0.8390279
0.158165932,-0.3279451,-0.531131,-0.3540289,-0.4854572,0.2468785,0.8438955
0.160676479,-0.3896495,-0.4712129,-0.2930447,-0.4879356,0.2395748,0.8355784
0.163187504,-0.3279451,-0.4112948,-0.2930447,-0.4889064,0.2400615,0.8326663
0.165698051,-0.3896495,-0.591049,-0.2930447,-0.4908603,0.2415515,0.8380207
0.168208122,-0.4513538,-0.8906393,-0.2320606,-0.485485,0.2415141,0.8399677
0.17071867,-0.3896495,-0.8307213,-0.2320606,-0.4869414,0.2429833,0.8390061
0.173229218,-0.2662407,-0.4712129,-0.3540289,-0.485956,0.2434532,0.8356096
0.175739765,-0.3896495,-0.531131,-0.2320606,-0.4869431,0.2415088,0.8336505
0.17825079,-0.4513538,-0.8906393,-0.415013,-0.4879322,0.2405535,0.8375293
0.180761337,-0.3279451,-0.7708032,-0.415013,-0.4889017,0.2410376,0.8336455
0.183271885,-0.2662407,-0.591049,-0.1710764,-0.4899022,0.2371489,0.8326433
0.185782433,-0.2662407,-0.7708032,-0.1710764,-0.4840385,0.2366157,0.8326434
0.188292503,-0.4513538,-0.8307213,-0.3540289,-0.4908543,0.2425249,0.8380281
0.190803051,-0.3896495,-0.7708032,-0.2320606,-0.4888826,0.2444486,0.8351293
0.193313599,-0.5130582,-0.9505574,-0.3540289,-0.4918093,0.2464291,0.8390291
0.195824623,-0.636467,-1.010475,-0.3540289,-0.4888245,0.2541871,0.8366613
0.198335171,-0.636467,-1.250148,-0.4759972,-0.4907788,0.2542,0.8356884
0.200845718,-0.6981714,-1.130312,-0.3540289,-0.4907805,0.2537106,0.8347129
0.203356266,-0.8215802,-0.9505574,-0.4759972,-0.4902782,0.2566362,0.8381366
0.205867291,-0.944989,-0.6509671,-0.4759972,-0.4878497,0.2536926,0.8366582
0.208376885,-1.006693,-0.9505574,-0.6589496,-0.4888586,0.2483424,0.8351591
0.210887909,-1.130102,-0.8307213,-0.7199338,-0.4869167,0.2458907,0.83417
0.213398457,-1.130102,-0.9505574,-0.7199338,-0.4879406,0.239092,0.8370322
0.215909004,-1.068398,-0.7108852,-0.6589496,-0.4903921,0.2386324,0.8399421
0.218419552,-1.068398,-0.8307213,-0.7199338,-0.4903694,0.2415437,0.8365634
0.220930576,-1.006693,-0.8307213,-0.5369813,-0.4869744,0.2376292,0.8389651
0.223441124,-0.944989,-0.9505574,-0.5979655,-0.4879549,0.2366571,0.8365278
0.225951672,-0.8832846,-0.8906393,-0.6589496,-0.4903705,0.2400679,0.830722
0.228461742,-0.7598758,-0.8906393,-0.5369813,-0.4889204,0.2381185,0.8341091
0.23097229,-0.6981714,-1.19023,-0.5979655,-0.4923417,0.2386362,0.8355681
0.233482838,-0.5747626,-1.250148,-0.5369813,-0.4869846,0.2337082,0.8287323
0.235993385,-0.6981714,-1.070394,-0.5369813,-0.4918514,0.2396148,0.8389769
0.23850441,-0.5747626,-1.310066,-0.4759972,-0.4913404,0.2435087,0.8404646
0.241014957,-0.7598758,-1.19023,-0.4759972,-0.4884081,0.2429949,0.8390052
0.243525505,-0.8215802,-1.310066,-0.3540289,-0.4874095,0.2478726,0.8458451
0.246036053,-0.6981714,-1.369984,-0.2930447,-0.4845041,0.2429782,0.8443522
0.248546124,-0.8215802,-1.070394,-0.3540289,-0.4864652,0.2410338,0.8394774
0.251056671,-0.6981714,-1.070394,-0.5979655,-0.4864652,0.2410338,0.8394774
0.253567696,-0.636467,-0.8307213,-0.3540289,-0.4845122,0.2410235,0.8414221
0.256078243,-0.3896495,-0.7708032,-0.415013,-0.4850142,0.2385898,0.8399456
0.258588791,-0.2662407,-0.8906393,-0.4759972,-0.484055,0.235663,0.8404097
0.261099339,-0.3896495,-0.8307213,-0.2320606,-0.483088,0.2337057,0.8394237
0.263609886,-0.2045363,-0.591049,-0.415013,-0.4830752,0.2366365,0.8433329
0.266120911,-0.2045363,-0.4712129,-0.4759972,-0.4855391,0.2327529,0.8399006
0.268630982,-0.2662407,-0.4712129,-0.3540289,-0.4850775,0.2298468,0.8466805
0.271141529,-0.2662407,-0.4712129,-0.415013,-0.484582,0.22983,0.8418223
0.273652077,-0.08112751,-0.531131,-0.4759972,-0.4835905,0.2322585,0.8428133
0.276162624,0.16569,-0.591049,-0.2320606,-0.4869557,0.2405483,0.8385017
0.278673172,0.2273944,-0.4112948,-0.2320606,-0.4879329,0.2405548,0.8380151
0.281184197,0.16569,-0.2315406,-0.2930447,-0.4879566,0.2361677,0.8355523
0.283694744,0.1039857,-0.1117045,-0.1710764,-0.4874634,0.2376331,0.8389648
0.286205292,0.16569,-0.1716226,-0.1100923,-0.4859749,0.2410273,0.838506
0.288715363,0.2890988,-0.2315406,-0.2320606,-0.4870101,0.2322804,0.8408676
0.29122591,0.4125076,-0.2315406,-0.2930447,-0.4845676,0.2332501,0.8467069
0.293736458,0.5359164,-0.1716226,-0.1710764,-0.4870115,0.232283,0.8418393
0.296247482,0.474212,0.008131608,-0.1100923,-0.4884621,0.2352189,0.8433183
0.29875803,0.3508032,0.06804967,-0.1100923,-0.4899178,0.2366868,0.8418709
0.301268578,0.5359164,0.008131608,-0.1100923,-0.4904017,0.2371735,0.8404167
0.303779125,0.6593251,-0.1117045,-0.04910814,-0.4903784,0.2400835,0.8365523
0.306289673,0.4125076,-0.1117045,0.07286017,-0.4864862,0.2376267,0.8394513
0.308799744,0.3508032,0.008131608,0.01187601,-0.4894006,0.2400758,0.8365529
0.311310768,0.3508032,0.1279677,-0.04910814,-0.488905,0.2410441,0.8360748
0.313821316,0.5359164,0.1279677,-0.1100923,-0.4855037,0.238595,0.8404312
0.316331863,0.5359164,0.06804967,0.07286017,-0.49037,0.241545,0.8370492
0.318842411,0.4125076,-0.2315406,0.01187601,-0.4908322,0.2464226,0.8395155
0.321352959,0.2273944,0.008131608,0.01187601,-0.489839,0.2483553,0.8371018
0.323863983,0.3508032,0.1279677,0.1338443,-0.4873973,0.2473561,0.8346667
0.326374531,0.3508032,0.06804967,0.01187601,-0.4884081,0.2429949,0.8390052
0.328884602,0.3508032,-0.05178645,-0.1100923,-0.4879198,0.2429923,0.8394914
0.331395149,0.4125076,-0.1117045,-0.2320606,-0.4923122,0.2444899,0.8404714
0.333905697,0.3508032,0.008131608,0.07286017,-0.4986744,0.2420897,0.8341325
0.336416245,0.2890988,-0.05178645,0.01187601,-0.4933094,0.2405947,0.8370399
0.338927269,0.3508032,-0.05178645,0.01187601,-0.4942919,0.2396264,0.8360601
0.341437817,0.474212,-0.1716226,-0.04910814,-0.4879535,0.2376396,0.8399363
0.343948364,0.3508032,-0.2914587,0.01187601,-0.4908606,0.2410595,0.8360735
0.346458912,0.4125076,-0.2315406,0.01187601,-0.4859564,0.2419762,0.8292822
0.348968983,0.4125076,0.008131608,0.01187601,-0.4840331,0.2375905,0.8331368
0.35147953,0.4125076,0.2478039,0.07286017,-0.4869291,0.2434519,0.8322079
0.353990078,0.3508032,0.008131608,-0.1100923,-0.4825627,0.2390494,0.8370357
0.356501103,0.474212,0.008131608,-0.04910814,-0.4869814,0.2371503,0.8418766
0.35901165,0.4125076,0.008131608,-0.04910814,-0.488928,0.238626,0.8418865
0.361522198,0.2890988,0.06804967,-0.1100923,-0.4893961,0.2425302,0.8443453
0.364032745,0.5359164,0.1878858,0.07286017,-0.4893722,0.2454389,0.8399949
0.36654377,0.4125076,-0.05178645,0.01187601,-0.4879075,0.244446,0.8370732
0.369053364,0.5359164,0.1878858,-0.1100923,-0.4864739,0.2390804,0.8370332
0.371564388,0.5976207,0.1279677,-0.1100923,-0.4820931,0.2361277,0.8379854
0.374074936,0.5976207,-0.1117045,-0.1710764,-0.4830388,0.241984,0.8409447
0.376585484,0.5359164,0.1878858,0.01187601,-0.4879349,0.2395735,0.8350926
0.379096031,0.5359164,0.06804967,0.1338443,-0.4928168,0.2420615,0.8409383
0.381607056,0.5976207,0.1279677,-0.04910814,-0.4933071,0.2410828,0.8375295
0.384117603,0.6593251,0.06804967,-0.1100923,-0.4908897,0.2366828,0.8374975
0.386628151,0.5976207,-0.05178645,0.1338443,-0.4904174,0.2347411,0.840884
0.389138222,0.6593251,-0.1117045,0.01187601,-0.485985,0.2390765,0.8370335
0.391648769,0.6593251,0.1878858,0.01187601,-0.4840424,0.2366235,0.8355586
0.394159317,0.6593251,0.06804967,0.01187601,-0.4845082,0.2410157,0.838507
0.396669865,0.7210295,-0.1117045,-0.1710764,-0.491828,0.24351,0.8394925
0.399180889,0.6593251,-0.05178645,-0.2320606,-0.4893845,0.243,0.8380328
0.401691437,0.5976207,0.008131608,-0.1100923,-0.4898647,0.2449573,0.8404767
0.404201984,0.7210295,0.1279677,0.01187601,-0.4918368,0.2405715,0.8326681
0.406712532,0.6593251,-0.1716226,-0.04910814,-0.4889046,0.2425211,0.8424022
0.409222603,0.7210295,-0.1117045,-0.1710764,-0.4839866,0.2468591,0.8409814
0.411733151,0.7210295,-0.1716226,0.01187601,-0.4864392,0.2439386,0.8336695
0.414244175,0.6593251,-0.1117045,-0.1100923,-0.4825407,0.2429472,0.8385232
0.416754723,0.5976207,-0.1117045,-0.1710764,-0.4830098,0.2463607,0.8395206
0.41926527,0.5359164,0.1878858,-0.1100923,-0.4874159,0.2454221,0.8395103
0.421775818,0.474212,-0.1117045,-0.1100923,-0.49034,0.2464123,0.8370866
0.424286366,0.474212,-0.05178645,-0.1710764,-0.4903513,0.2454492,0.840966
0.42679739,0.5359164,0.06804967,-0.04910814,-0.4932984,0.2430362,0.8399737
0.429307461,0.5976207,-0.1117045,-0.1100923,-0.4878841,0.2483412,0.837589
0.431818009,0.5359164,-0.1117045,-0.1100923,-0.488371,0.2493263,0.8405112
0.434328556,0.4125076,-0.05178645,-0.1100923,-0.4883941,0.2449379,0.8375625
0.436839104,0.474212,0.008131608,-0.1100923,-0.487426,0.2434713,0.8380378
0.439349651,0.474212,-0.05178645,-0.1100923,-0.485449,0.2473548,0.8400124
0.441860676,0.2890988,0.1279677,-0.1100923,-0.486925,0.2454143,0.838053
0.444371224,0.3508032,0.06804967,-0.04910814,-0.4893522,0.2473702,0.8341795
0.446881771,0.4125076,-0.05178645,0.07286017,-0.4923215,0.2435229,0.8428932
0.449392319,0.4125076,-0.1716226,-0.1100923,-0.4918367,0.2415566,0.8370483
0.45190239,0.3508032,-0.05178645,-0.1100923,-0.4942418,0.2474102,0.8346622
0.454412937,0.4125076,-0.05178645,0.01187601,-0.4883951,0.2444473,0.8361012
0.456923962,0.3508032,-0.2315406,-0.1710764,-0.4869328,0.2429664,0.8326899
0.459434509,0.3508032,0.008131608,-0.1710764,-0.4874087,0.2454078,0.8341659
0.461945057,0.1039857,-0.1117045,-0.3540289,-0.4874069,0.2468823,0.8395215
0.464455604,0.16569,-0.2315406,-0.1100923,-0.4913381,0.2439968,0.8409542
0.466966152,0.2890988,-0.1716226,-0.1710764,-0.4903561,0.243488,0.8356066
0.469477177,0.2273944,0.008131608,-0.1100923,-0.4927989,0.2439967,0.8365805
0.471986771,0.1039857,-0.1716226,-0.2320606,-0.4913154,0.246908,0.8375755
0.474497795,0.04228127,-0.1716226,-0.4759972,-0.492317,0.2425288,0.8351121
0.477008343,0.04228127,0.06804967,-0.2930447,-0.4884081,0.2429949,0.8390052
0.47951889,0.1039857,0.008131608,-0.2320606,-0.4903604,0.2430039,0.8365746
0.48705101,-0.08112751,0.008131608,-0.1100923,-0.4918167,0.2444731,0.8356131
0.489561081,-0.1428319,-0.1716226,-0.1710764,-0.488369,0.2493224,0.8390536
0.492071628,-0.2662407,-0.1716226,-0.2930447,-0.4893534,0.248358,0.8395314
0.494582176,-0.2045363,0.06804967,-0.2320606,-0.4889146,0.2405703,0.8409297
0.497092724,-0.2045363,-0.05178645,-0.5369813,-0.4923148,0.2444951,0.8424149
0.499603748,-0.2662407,-0.1716226,-0.3540289,-0.4908199,0.2478764,0.8370974
0.502114296,-0.2662407,-0.2315406,-0.2930447,-0.4903837,0.2400939,0.8404391
0.504624843,-0.3896495,-0.2914587,-0.415013,-0.4932998,0.2420537,0.8365653
0.507135391,-0.3896495,-0.4112948,-0.415013,-0.4883607,0.2497988,0.8351706
0.509645939,-0.3896495,-0.4712129,-0.3540289,-0.4874133,0.2454169,0.8375669
0.51215601,-0.3896495,-0.2914587,-0.415013,-0.4859345,0.2473522,0.8375828
0.514666557,-0.3279451,-0.4712129,-0.4759972,-0.4888917,0.2429884,0.8351181
0.517177582,-0.2662407,-0.1716226,-0.3540289,-0.488904,0.2415347,0.8375361
0.519688129,-0.3279451,-0.1716226,-0.2930447,-0.4913658,0.2396175,0.8414065
0.522198677,-0.2662407,-0.1716226,-0.3540289,-0.4908299,0.2459256,0.835625
0.524709225,-0.4513538,-0.4712129,-0.4759972,-0.494757,0.2450025,0.8429028
0.527220249,-0.5130582,-0.4112948,-0.2930447,-0.4898724,0.2434945,0.8394938
0.529730797,-0.5130582,-0.2914587,-0.2320606,-0.4928112,0.242543,0.8389986
0.532240868,-0.3279451,-0.2914587,-0.2930447,-0.4928182,0.242064,0.84191
0.534751415,-0.4513538,-0.2315406,-0.3540289,-0.490359,0.2439864,0.8399831
0.537261963,-0.5130582,-0.591049,-0.2930447,-0.4889033,0.2425185,0.8414304
0.53977251,-0.4513538,-0.4112948,-0.3540289,-0.4898644,0.2444641,0.8380437
0.542283535,-0.5130582,-0.3513767,-0.2930447,-0.4898333,0.249822,0.8395423
0.544794083,-0.5130582,-0.3513767,-0.4759972,-0.490357,0.2439825,0.8385255
0.54730463,-0.5747626,-0.4712129,-0.3540289,-0.4913478,0.2425379,0.8414289
0.549815178,-0.5747626,-0.531131,-0.2930447,-0.4913503,0.2400796,0.8321789
0.552325249,-0.6981714,-0.4112948,-0.415013,-0.4903607,0.242512,0.8346274
0.554835796,-0.5130582,-0.4712129,-0.3540289,-0.4908533,0.2430155,0.8394894
0.557346344,-0.4513538,-0.531131,-0.2320606,-0.4864585,0.2410208,0.8346189
0.559857368,-0.5130582,-0.2914587,-0.2320606,-0.4854704,0.2424707,0.8336589
0.562367916,-0.5130582,-0.3513767,-0.2320606,-0.4869494,0.2410286,0.8360761
0.564878464,-0.5130582,-0.4112948,-0.2930447,-0.4913251,0.2454492,0.8380502
0.567389011,-0.636467,-0.4712129,-0.2320606,-0.4893842,0.2434919,0.83998
0.569900036,-0.5130582,-0.3513767,-0.3540289,-0.4937826,0.2440161,0.8409526
0.57240963,-0.5130582,-0.2914587,-0.2930447,-0.4889143,0.2400771,0.8384967
0.574920654,-0.636467,-0.531131,-0.2930447,-0.4884478,0.2366687,0.8394426
0.577431202,-0.5130582,-0.4112948,-0.3540289,-0.4854893,0.2410299,0.8409356
0.579941749,-0.636467,-0.4112948,-0.2930447,-0.4879175,0.2434803,0.839981
0.582452297,-0.5747626,-0.3513767,-0.2320606,-0.4903847,0.2396032,0.8389778
0.584962845,-0.5130582,-0.2315406,-0.2320606,-0.4849911,0.2429782,0.8428943
0.587473869,-0.4513538,-0.3513767,-0.3540289,-0.4874592,0.2405807,0.8491902
0.589984417,-0.5747626,-0.2914587,-0.1100923,-0.493806,0.2401209,0.8404369
0.592494965,-0.5747626,-0.3513767,-0.3540289,-0.4859756,0.2410286,0.8389919
0.592494965,-0.5747626,-0.3513767,-0.3540289,-0.4859756,0.2410286,0.8389919
0.597515583,-0.5130582,-0.4112948,-0.3540289,-0.4884251,0.2405651,0.8404441
0.600026131,-0.3279451,-0.2315406,-0.2930447,-0.4894099,0.2391088,0.8389747
0.600026131,-0.3279451,-0.2315406,-0.2930447,-0.4894099,0.2391088,0.8389747
0.602537155,-0.3896495,-0.2315406,-0.2320606,-0.4869447,0.2420046,0.8370552
0.605047703,-0.2662407,-0.2315406,-0.415013,-0.4898752,0.2415295,0.8326769
0.60755825,-0.636467,-0.3513767,-0.2930447,-0.4869427,0.2429859,0.8399779
0.610068798,-0.5747626,-0.3513767,-0.3540289,-0.4859682,0.2429846,0.8424078
0.612579822,-0.3279451,-0.4112948,-0.1100923,-0.4839966,0.2449083,0.8395088
0.615089416,-0.3896495,-0.4712129,-0.1100923,-0.4839903,0.2453885,0.8370832
0.617600441,-0.5130582,-0.4112948,-0.3540289,-0.4874167,0.2444383,0.8356161
0.620110989,-0.5130582,-0.4112948,-0.2320606,-0.4913505,0.2405728,0.8346119
0.622622013,-0.3896495,-0.2914587,-0.04910814,-0.4884161,0.2410402,0.8360751
0.625132084,-0.2662407,-0.2914587,-0.1100923,-0.4879352,0.2400667,0.8375255
0.627642631,-0.3279451,-0.3513767,-0.1100923,-0.4889026,0.2425172,0.8409446
0.630153656,-0.3279451,-0.3513767,-0.1710764,-0.4888758,0.247391,0.8434111
0.632664204,-0.3279451,-0.4112948,-0.1710764,-0.4879182,0.2424965,0.8360866
0.635174274,-0.3896495,-0.4712129,-0.2320606,-0.4840212,0.2385523,0.8287715
0.637684822,-0.3279451,-0.4712129,-0.2930447,-0.4864676,0.2395606,0.8346077
0.64019537,-0.3279451,-0.3513767,-0.2930447,-0.4889247,0.2386195,0.8394572
0.642705917,-0.3279451,-0.2315406,-0.1710764,-0.4918721,0.2366997,0.840898
0.645216942,-0.3896495,-0.2914587,-0.04910814,-0.486955,0.240547,0.8380158
0.647727489,-0.2662407,-0.3513767,-0.1710764,-0.4898907,0.2410673,0.8419045
0.650238037,-0.3896495,-0.3513767,-0.2930447,-0.4859895,0.2400707,0.8448147
0.652748585,-0.3896495,-0.3513767,-0.3540289,-0.4849892,0.2419892,0.8370565
0.655258655,-0.2662407,-0.2914587,-0.2930447,-0.4864248,0.2463736,0.834174
0.657769203,-0.01942312,-0.2914587,-0.2320606,-0.4845186,0.238573,0.8350874
0.660280228,-0.2045363,-0.2914587,-0.2320606,-0.4894139,0.2381314,0.8375097
0.662790775,-0.3896495,-0.4112948,-0.2320606,-0.4947701,0.2425649,0.8414266
0.665301323,-0.2662407,-0.531131,-0.2320606,-0.4908755,0.2405961,0.8448153
0.66781187,-0.2662407,-0.3513767,-0.2930447,-0.4894063,0.2395942,0.8384926
0.670322418,-0.3279451,-0.2315406,-0.2320606,-0.4903829,0.2410777,0.8443335
0.672833443,-0.1428319,-0.2315406,-0.2320606,-0.4864748,0.2395749,0.8399521
0.67534399,-0.1428319,-0.3513767,-0.1710764,-0.481078,0.2419582,0.8370591
0.677854061,-0.01942312,-0.1716226,-0.2930447,-0.4869109,0.2483425,0.8409906
0.680364609,-0.1428319,-0.2315406,-0.2320606,-0.4845115,0.2410222,0.8409363
0.682875156,-0.1428319,-0.1716226,-0.1710764,-0.4879198,0.2429923,0.8394914
0.685385704,-0.08112751,-0.1716226,-0.2320606,-0.4869353,0.2439567,0.8390136
0.687896728,-0.08112751,-0.1716226,-0.1710764,-0.4908617,0.2405689,0.8346123
0.690407276,0.04228127,-0.1117045,-0.1710764,-0.4923356,0.2405948,0.8399557
0.692917824,0.04228127,-0.2315406,-0.1710764,-0.48693,0.2449315,0.8395069
0.695428371,-0.01942312,-0.2914587,-0.1100923,-0.4889019,0.2425159,0.8404587
0.697938442,-0.01942312,-0.2315406,-0.1710764,-0.4903754,0.2405702,0.836556
0.70044899,-0.08112751,-0.1716226,-0.1710764,-0.4860024,0.2361548,0.8365253
0.702960014,-0.01942312,-0.1716226,-0.1710764,-0.4879402,0.2395839,0.8389794
0.705470562,-0.01942312,-0.1716226,-0.1100923,-0.4850232,0.2371296,0.8399344
0.70798111,0.1039857,-0.1117045,0.01187601,-0.4864718,0.2400616,0.8399558
0.710491657,0.1039857,-0.1117045,-0.04910814,-0.4888997,0.2420188,0.8365681
0.713002205,0.04228127,-0.1117045,-0.04910814,-0.4923486,0.2391424,0.8428597
0.715513229,0.1039857,-0.2315406,0.01187601,-0.4899058,0.2376486,0.8375056
0.718022823,0.2273944,-0.1716226,-0.04910814,-0.4899138,0.236679,0.8389558
0.720533848,0.2273944,-0.05178645,-0.2320606,-0.4840014,0.2429471,0.8341495
0.723044395,0.2273944,-0.1117045,0.01187601,-0.4850035,0.2395542,0.836552
0.725554943,0.2890988,-0.05178645,-0.04910814,-0.4884244,0.2405638,0.8399583
0.728065491,0.04228127,-0.05178645,0.07286017,-0.4898811,0.2415411,0.8370496
0.730576515,0.16569,-0.1117045,0.07286017,-0.4923293,0.241075,0.8375301
0.733087063,0.16569,-0.1716226,-0.04910814,-0.4913408,0.2430168,0.8385174
0.73559761,0.04228127,-0.4112948,-0.04910814,-0.4952615,0.2401105,0.8321763
0.738107681,0.16569,-0.1117045,0.1338443,-0.4864658,0.2410351,0.8399633
0.740618229,0.2890988,-0.05178645,-0.04910814,-0.4889106,0.2415476,0.8423947
0.743128776,0.2273944,0.008131608,-0.1100923,-0.4928269,0.2391255,0.8350857
0.745639324,0.4125076,-0.1117045,0.07286017,-0.4864613,0.2400409,0.832182
0.748150349,0.3508032,-0.2914587,0.01187601,-0.4859713,0.2405276,0.8336437
0.750660896,0.2273944,-0.2914587,-0.1710764,-0.4864218,0.2468603,0.8341777
0.753171444,0.2273944,-0.2914587,0.01187601,-0.4913157,0.2474013,0.8400086
0.755681992,0.16569,-0.3513767,0.01187601,-0.489363,0.2478842,0.8443863
0.758192062,0.1039857,-0.4712129,-0.04910814,-0.486917,0.2463839,0.8366029
0.76070261,0.1039857,-0.2914587,0.01187601,-0.4869447,0.2420046,0.8370552
0.763213634,0.1039857,-0.3513767,0.07286017,-0.4888926,0.2434829,0.8380368
0.765724182,0.16569,-0.4112948,0.07286017,-0.48746,0.2376266,0.8365355
0.76823473,0.2273944,-0.4112948,0.1338443,-0.4859753,0.2405354,0.8365588
0.770745277,0.16569,-0.4712129,0.01187601,-0.4927935,0.2449715,0.8370737
0.773256302,0.1039857,-0.4712129,-0.04910814,-0.4850062,0.2395594,0.8384955
0.775766849,0.2273944,-0.4112948,0.01187601,-0.4840173,0.2419931,0.8414299
0.778277397,0.16569,-0.4712129,-0.1100923,-0.4854493,0.247848,0.8424454
0.780787468,0.04228127,-0.531131,0.01187601,-0.4888575,0.2498182,0.8410005
0.783298016,0.04228127,-0.4712129,-0.04910814,-0.4888612,0.2483476,0.8371024
0.785808563,0.1039857,-0.3513767,-0.1100923,-0.4825226,0.2458675,0.8385456
0.788319111,-0.01942312,-0.3513767,0.1338443,-0.487413,0.2449237,0.8351339
0.790830135,0.04228127,-0.3513767,0.07286017,-0.4952707,0.2401287,0.8389784
0.793340683,0.04228127,-0.3513767,-0.1100923,-0.4888619,0.2483489,0.8375883
0.795851231,0.1039857,-0.4112948,-0.04910814,-0.4844859,0.2444202,0.8375614
0.798361778,0.04228127,-0.4112948,-0.04910814,-0.4820383,0.2448876,0.8375667
0.800871849,-0.01942312,-0.4112948,-0.04910814,-0.4873999,0.2473612,0.8366101
0.803382397,-0.08112751,-0.4712129,-0.1710764,-0.4888759,0.2464059,0.839031
0.805893421,-0.1428319,-0.4112948,-0.1710764,-0.4878932,0.2458959,0.8331976
0.808403969,-0.08112751,-0.2914587,-0.1100923,-0.4903563,0.2439812,0.8380396
0.810914516,-0.2662407,-0.2914587,-0.1100923,-0.4917989,0.2488718,0.8424487
0.813425064,-0.2045363,-0.531131,-0.1710764,-0.4874059,0.2473729,0.8409829
0.815935612,-0.3279451,-0.531131,-0.1710764,-0.4888856,0.2439619,0.8351255
0.818446636,-0.2662407,-0.4112948,-0.1100923,-0.4854564,0.2453988,0.8365964
0.820956707,-0.1428319,-0.4112948,-0.1100923,-0.4825059,0.2487905,0.8395396
0.823467255,-0.2662407,-0.531131,-0.1710764,-0.486913,0.2473612,0.8380679
0.825977802,-0.2045363,-0.591049,-0.2320606,-0.4898584,0.2444524,0.833671
0.82848835,-0.4513538,-0.2914587,-0.2320606,-0.4898631,0.2444615,0.837072
0.830998898,-0.4513538,-0.4112948,-0.1710764,-0.4874215,0.2449405,0.84145
0.833509922,-0.6981714,-0.531131,-0.1710764,-0.4908318,0.2469146,0.8414627
0.83602047,-0.5747626,-0.4712129,-0.3540289,-0.4864322,0.2454027,0.8351383
0.838531017,-0.3279451,-0.4112948,-0.415013,-0.487435,0.241026,0.8336465
0.841041088,-0.4513538,-0.2315406,-0.415013,-0.4864498,0.2429742,0.837063
0.843551636,-0.5130582,-0.3513767,-0.2930447,-0.4893779,0.2429871,0.8331743
0.846062183,-0.5747626,-0.4712129,-0.2320606,-0.4849701,0.2454001,0.8385402
0.848573208,-0.636467,-0.4112948,-0.3540289,-0.4810959,0.2400229,0.8414169
0.851083755,-0.5130582,-0.4112948,-0.415013,-0.4869373,0.2439606,0.8404711
0.853594303,-0.5747626,-0.531131,-0.415013,-0.4903881,0.2386246,0.8370269
0.856104851,-0.5747626,-0.591049,-0.2930447,-0.4888859,0.2444551,0.8375585
0.858615398,-0.6981714,-0.531131,-0.3540289,-0.4888976,0.2430001,0.8394907
0.861126423,-0.6981714,-0.6509671,-0.3540289,-0.4908503,0.2425172,0.835113
0.863636017,-0.5747626,-0.4712129,-0.3540289,-0.4884235,0.2400693,0.8370394
0.866147041,-0.636467,-0.4712129,-0.415013,-0.4908523,0.242521,0.8365706
0.868657589,-0.5747626,-0.591049,-0.415013,-0.4879252,0.2420176,0.8389981
0.871168137,-0.636467,-0.591049,-0.415013,-0.4879031,0.2459153,0.8404855
0.873678684,-0.5130582,-0.531131,-0.2930447,-0.490342,0.2464162,0.8385442
0.876189709,-0.5747626,-0.3513767,-0.2930447,-0.4854914,0.2400487,0.838013
0.878700256,-0.5747626,-0.7108852,-0.3540289,-0.4854611,0.2444228,0.8356173
0.881210804,-0.5747626,-0.531131,-0.2320606,-0.4908739,0.2401003,0.8414105
0.883720875,-0.5130582,-0.4712129,-0.3540289,-0.4865055,0.235694,0.8447809
0.886231422,-0.4513538,-0.6509671,-0.2930447,-0.4869708,0.2381147,0.838483
0.88874197,-0.5130582,-0.531131,-0.2930447,-0.4883954,0.2449405,0.8385342
0.891252995,-0.5130582,-0.3513767,-0.2930447,-0.4840203,0.2415064,0.8414262
0.893763542,-0.3279451,-0.2914587,-0.2930447,-0.4889003,0.2420201,0.837054
0.89627409,-0.4513538,-0.4112948,-0.1710764,-0.4884235,0.2400693,0.8370394
0.898784637,-0.636467,-0.3513767,-0.2930447,-0.4859732,0.2415166,0.8394814
0.901295185,-0.4513538,-0.2315406,-0.3540289,-0.4874804,0.2352034,0.8404037
0.903805256,-0.4513538,-0.2914587,-0.2930447,-0.4884846,0.2308292,0.8398837
0.906315804,-0.4513538,-0.4112948,-0.1710764,-0.4879194,0.2434842,0.8414385
0.908826828,-0.1428319,-0.4712129,-0.2320606,-0.4899164,0.2366842,0.8408992
0.911337376,-0.2662407,-0.4712129,-0.1100923,-0.490886,0.2371683,0.8370154
0.913847923,-0.3279451,-0.2914587,-0.2930447,-0.4864649,0.2405406,0.8370444
0.916358471,-0.2045363,-0.2315406,-0.1710764,-0.4859312,0.2473457,0.8351535
0.918869495,-0.2662407,-0.3513767,-0.1100923,-0.4889,0.242512,0.8390011
0.921380043,-0.3279451,-0.6509671,-0.1100923,-0.4884057,0.2434829,0.8394948
0.923890591,-0.2662407,-0.4712129,-0.1100923,-0.4903954,0.2386389,0.8423714
0.926400661,-0.2045363,-0.4112948,-0.2320606,-0.4903693,0.2425288,0.8409436
0.928911209,-0.2045363,-0.2914587,-0.2320606,-0.4825757,0.237597,0.8399398
0.931421757,-0.08112751,-0.3513767,-0.1710764,-0.4835305,0.2400228,0.8341275
0.933932781,0.04228127,-0.4712129,-0.3540289,-0.4844842,0.2449096,0.8385368
0.936443329,-0.2662407,-0.4112948,-0.1100923,-0.4898844,0.2415476,0.8394789
0.938953876,-0.2662407,-0.3513767,-0.1710764,-0.4888909,0.2439722,0.8390123
0.941464424,-0.2045363,-0.2315406,-0.04910814,-0.4864662,0.2405431,0.8380161
0.943974972,-0.08112751,-0.1716226,-0.2320606,-0.4840086,0.2429614,0.8394939
0.946485043,-0.08112751,-0.4112948,-0.1710764,-0.4904188,0.2337586,0.8374755
0.94899559,-0.1428319,-0.2914587,0.01187601,-0.484548,0.2337044,0.8345642
0.951506615,-0.08112751,-0.1117045,0.07286017,-0.4869991,0.2347218,0.8438013
0.954017162,0.1039857,-0.2914587,-0.04910814,-0.485526,0.2361756,0.8457569
0.95652771,0.16569,-0.2914587,-0.1100923,-0.4894243,0.2366738,0.8384703
0.959038258,-0.01942312,-0.2914587,-0.1710764,-0.4864615,0.2405341,0.8346151
0.961549282,-0.1428319,-0.1117045,0.07286017,-0.4840387,0.2371089,0.8350765
0.96405983,-0.01942312,-0.1716226,0.2558126,-0.4845366,0.2366377,0.8394451
0.966569901,0.16569,-0.2315406,-0.04910814,-0.4893782,0.2434803,0.8356073
0.969080448,0.04228127,-0.1716226,0.01187601,-0.4850279,0.2351685,0.8345751
0.971590996,0.16569,-0.05178645,0.1338443,-0.4893999,0.2410596,0.8404472
0.974101543,0.2273944,-0.2315406,0.07286017,-0.4898707,0.2439838,0.8404692
0.976612091,0.04228127,-0.2315406,-0.04910814,-0.4889035,0.2439968,0.8482437
0.979123116,0.2890988,-0.2315406,0.01187601,-0.4942427,0.2488899,0.8419612
0.981633663,0.3508032,-0.4712129,-0.04910814,-0.488924,0.2386182,0.8389713
0.984144211,0.04228127,-0.3513767,0.01187601,-0.4879102,0.2434661,0.8346365
0.986654282,-0.01942312,-0.3513767,0.01187601,-0.4854724,0.2424746,0.8351166
0.989164829,0.1039857,-0.1716226,0.07286017,-0.4855002,0.2380953,0.8355688
0.991675377,0.1039857,-0.2914587,-0.04910814,-0.4884238,0.2405625,0.8394724
0.994186401,0.16569,-0.3513767,-0.1100923,-0.4850379,0.2351879,0.8418629
0.996696949,0.2273944,-0.1117045,0.01187601,-0.4903807,0.2405806,0.8404428
0.999207497,0.16569,-0.1117045,0.01187601,-0.4894119,0.2391127,0.8404323
1.001718044,0.04228127,-0.1117045,0.01187601,-0.4850135,0.2385885,0.8394597
1.004229069,0.2890988,-0.1117045,0.07286017,-0.4860153,0.2356875,0.8438094
1.006739616,0.2890988,-0.2914587,0.1338443,-0.487492,0.2337483,0.8423361
1.009249687,0.2273944,-0.3513767,0.01187601,-0.4889323,0.2381418,0.8428545
1.011760235,0.2890988,-0.2315406,0.07286017,-0.4898748,0.2430065,0.8390042
1.014270782,0.3508032,-0.05178645,0.1338443,-0.4874463,0.2400629,0.8375259
1.01678133,0.5359164,-0.1716226,0.01187601,-0.4884124,0.2425108,0.8399732
1.019291878,0.3508032,-0.1716226,0.01187601,-0.490389,0.2391191,0.8399459
1.021802902,0.2273944,-0.1716226,0.01187601,-0.488933,0.237158,0.8389601
1.02431345,0.2273944,-0.2315406,0.07286017,-0.4874414,0.2405457,0.836072
1.026823998,0.3508032,-0.2315406,0.07286017,-0.4898941,0.2400887,0.8399536
1.029334545,0.4125076,-0.1716226,0.07286017,-0.4840237,0.2395426,0.8350952
1.031844616,0.474212,-0.1716226,0.2558126,-0.4840039,0.2439374,0.8404731
1.034355164,0.4125076,-0.05178645,0.1338443,-0.485482,0.2420008,0.8399714
1.036866188,0.5976207,-0.1716226,0.1338443,-0.4889184,0.2390997,0.8370316
1.039376736,0.5359164,-0.2315406,0.07286017,-0.4903788,0.2395916,0.8346051
1.041887283,0.5359164,0.1279677,0.1338443,-0.4845109,0.2410209,0.8404504
1.044397831,0.6593251,-0.1716226,0.07286017,-0.488931,0.2381392,0.8418828
1.046908379,0.5976207,-0.2914587,0.07286017,-0.4908763,0.2386272,0.8365408
1.049419403,0.4125076,-0.05178645,0.07286017,-0.4840303,0.2395555,0.8399537
1.051929474,0.474212,-0.05178645,0.07286017,-0.4869477,0.242503,0.8414317
1.054440022,0.5359164,-0.1716226,0.1338443,-0.4898874,0.2410609,0.8394752
1.056950569,0.5976207,-0.05178645,0.1948285,-0.4884178,0.2405509,0.8350998
1.059461117,0.6593251,0.008131608,0.1948285,-0.490351,0.244956,0.838533
1.061971664,0.6593251,-0.05178645,-0.04910814,-0.4859542,0.2449276,0.8409652
1.064482689,0.5976207,-0.05178645,0.1948285,-0.4884362,0.2381237,0.8375103
1.066993237,0.474212,0.008131608,0.07286017,-0.4908732,0.240099,0.8409247
1.069503784,0.5359164,0.1878858,0.01187601,-0.4894125,0.2400991,0.8452983
1.072013855,0.5359164,0.008131608,0.2558126,-0.4845003,0.2419853,0.8370568
1.074524403,0.5976207,-0.2315406,0.3167967,-0.4874213,0.2434622,0.8346369
1.07703495,0.5976207,-0.1117045,0.1338443,-0.4864478,0.2439554,0.8399857
1.079545975,0.5359164,0.008131608,0.01187601,-0.4839949,0.2453976,0.8404843
1.082056522,0.5976207,0.1279677,0.07286017,-0.4879245,0.2420163,0.8385122
1.08456707,0.7827339,0.008131608,0.07286017,-0.4893947,0.2400641,0.8321801
1.087077618,0.5976207,-0.1117045,-0.04910814,-0.4864595,0.2425005,0.8419179
1.089588165,0.5976207,-0.05178645,0.07286017,-0.4859504,0.2463982,0.8448632
1.09209919,0.7827339,0.008131608,0.3777809,-0.48744,0.2415283,0.8394805
1.094608784,0.6593251,0.06804967,0.01187601,-0.4893882,0.2425146,0.838515
1.097119808,0.7210295,-0.1117045,0.1948285,-0.4879198,0.2429923,0.8394914
1.099630356,0.7827339,0.06804967,0.1948285,-0.4849935,0.241505,0.8380245
1.102140903,0.7210295,0.1279677,0.07286017,-0.4860034,0.2356642,0.8350641
1.104651451,0.6593251,0.06804967,0.01187601,-0.4859743,0.241026,0.8380201
1.107162476,0.7210295,0.1878858,0.07286017,-0.4893802,0.2434842,0.8370648
1.109673023,0.7210295,0.06804967,0.07286017,-0.4869624,0.2395761,0.8389801
1.112183571,0.8444383,-0.05178645,0.1948285,-0.4859662,0.2429807,0.8409503
1.114693642,1.029552,-0.1716226,0.07286017,-0.4835275,0.2414947,0.8385113
1.117204189,0.9061427,0.008131608,0.3777809,-0.4840196,0.2415051,0.8409404
1.119714737,0.8444383,0.06804967,0.2558126,-0.4893709,0.2454363,0.8390232
1.122225761,0.7827339,0.008131608,0.1338443,-0.4913031,0.2483618,0.8351575
1.124736309,0.8444383,0.008131608,0.1338443,-0.4889093,0.2405599,0.8370427
1.127246857,0.7827339,-0.1716226,0.07286017,-0.4864421,0.244437,0.8380459
1.129757404,0.5976207,-0.1716226,0.1338443,-0.4883881,0.2459114,0.83757
1.132267952,0.5976207,-0.1716226,0.07286017,-0.4908509,0.2435036,0.8399791
1.134778023,0.5359164,0.008131608,0.1948285,-0.4918213,0.2444822,0.8390141
1.13728857,0.7210295,0.06804967,0.2558126,-0.488377,0.2483528,0.8405038
1.139799595,0.6593251,0.06804967,0.1948285,-0.4859453,0.2454027,0.8365961
1.142310143,0.5359164,0.06804967,0.1338443,-0.4873788,0.2517535,0.8410164
1.14482069,0.6593251,-0.4112948,0.07286017,-0.491317,0.2474038,0.8409803
1.147331238,0.5976207,-0.2914587,0.3777809,-0.4874042,0.2478622,0.8419582
1.149842262,0.5976207,-0.1117045,0.1948285,-0.4859433,0.2453988,0.8351386
1.15235281,0.474212,0.008131608,0.07286017,-0.485958,0.242472,0.8326869
1.154863358,0.2273944,-0.05178645,0.07286017,-0.4918117,0.2449559,0.8341593
1.157373428,0.474212,-0.05178645,0.2558126,-0.4840167,0.2410067,0.8365638
1.159883976,0.3508032,-0.05178645,0.1338443,-0.4864471,0.2439542,0.8394998
1.162394524,0.4125076,-0.1117045,0.07286017,-0.4869174,0.245892,0.8346558
1.164905548,0.4125076,-0.1117045,0.01187601,-0.488897,0.2429988,0.8390049
1.167416096,0.3508032,0.008131608,0.01187601,-0.4864154,0.2493108,0.8405125
1.169926643,0.3508032,-0.1117045,0.01187601,-0.4864278,0.2468719,0.8385504
1.172437191,0.4125076,-0.1117045,0.1338443,-0.485467,0.2444344,0.83999
1.174947739,0.2273944,-0.1117045,0.1948285,-0.4830258,0.2434364,0.8380407
1.177457809,0.16569,-0.1117045,0.01187601,-0.4888793,0.2454272,0.8370801
1.179968357,0.16569,-0.05178645,-0.1100923,-0.4859196,0.2488008,0.8332213
1.182479382,0.2273944,-0.1117045,0.1948285,-0.4879025,0.245914,0.8399996
1.184989929,0.2890988,0.008131608,-0.1100923,-0.4903409,0.2469068,0.8400055
1.187501431,0.2273944,-0.05178645,-0.1100923,-0.490344,0.2464201,0.8400018
1.187501431,0.2273944,-0.05178645,-0.1100923,-0.490344,0.2464201,0.8400018
1.192522049,0.2890988,0.008131608,0.01187601,-0.4864151,0.2478324,0.8336993
1.195032597,0.2273944,-0.1117045,-0.04910814,-0.4913044,0.2483644,0.8361291
1.195032597,0.2273944,-0.1117045,-0.04910814,-0.4913044,0.2483644,0.8361291
1.197542667,-0.08112751,-0.05178645,-0.1100923,-0.4883971,0.2444512,0.8375588
1.200053215,-0.01942312,-0.1117045,-0.04910814,-0.4835064,0.2449018,0.8385375
1.202563763,-0.08112751,-0.05178645,-0.1100923,-0.493789,0.2425507,0.838998
1.20507431,-0.01942312,0.06804967,-0.1100923,-0.4918247,0.2435035,0.8370632
1.207584858,-0.08112751,-0.1117045,-0.1100923,-0.4878932,0.2458959,0.8331976
1.210096359,-0.08112751,0.1878858,-0.1100923,-0.4864471,0.2439542,0.8394998
1.21260643,-0.01942312,0.06804967,-0.04910814,-0.4878898,0.2468745,0.8351485
1.215116978,-0.2045363,-0.05178645,-0.1710764,-0.4903022,0.2527424,0.8381068
1.217627525,-0.1428319,-0.1117045,-0.2320606,-0.4874232,0.2444512,0.8404746
1.220137596,-0.2662407,-0.05178645,-0.1710764,-0.4912904,0.2512925,0.8390666
1.222648144,-0.3896495,0.06804967,-0.1100923,-0.4879028,0.2454221,0.8380524
1.225159168,-0.1428319,-0.05178645,-0.1710764,-0.4893641,0.2473936,0.842925
1.227669716,-0.2045363,0.008131608,-0.1710764,-0.4908245,0.2478854,0.8404984
1.230180264,-0.3279451,-0.1117045,-0.1100923,-0.4869407,0.242982,0.8385203
1.232690811,-0.3896495,-0.2914587,-0.2320606,-0.4898661,0.2439748,0.8370682
1.235201836,-0.3279451,-0.1716226,-0.3540289,-0.4908212,0.2478789,0.8380691
1.237712383,-0.2662407,-0.1117045,-0.415013,-0.4898987,0.2400978,0.8433546
1.240222454,-0.5130582,-0.2914587,-0.2320606,-0.4918156,0.2459488,0.8414546
1.242733002,-0.4513538,-0.1117045,-0.1710764,-0.4893595,0.2473845,0.8395239
1.245243549,-0.3896495,-0.1716226,-0.3540289,-0.4845003,0.2419853,0.8370568
1.247754097,-0.3279451,0.06804967,-0.415013,-0.4874497,0.2390842,0.835575
1.250264645,-0.3896495,-0.1117045,-0.2930447,-0.4893735,0.2444564,0.8365864
1.252775669,-0.5130582,-0.2315406,-0.3540289,-0.4874329,0.2429923,0.8409493
1.255286217,-0.636467,-0.1716226,-0.3540289,-0.4859669,0.242982,0.8414361
1.257796764,-0.636467,-0.2315406,-0.3540289,-0.4844941,0.2439439,0.8414445
1.260307312,-0.5747626,-0.05178645,-0.3540289,-0.4864601,0.2415166,0.8380235
1.262817383,-0.5747626,-0.2315406,-0.1710764,-0.4884241,0.2410557,0.8419054
1.265327931,-0.4513538,-0.1117045,-0.2320606,-0.4923128,0.2454763,0.8453374
1.267838955,-0.5130582,-0.1716226,-0.4759972,-0.4883958,0.2444486,0.8365871
1.270349503,-0.3279451,-0.05178645,-0.2930447,-0.4864378,0.2449211,0.8370779
1.27286005,-0.4513538,0.06804967,-0.1710764,-0.4879111,0.2449457,0.8419356
1.275370598,-0.5747626,-0.1117045,-0.3540289,-0.4854724,0.2434597,0.8394967
1.277881146,-0.636467,-0.05178645,-0.2930447,-0.4903894,0.2386272,0.8379986
1.28039217,-0.636467,-0.1716226,-0.3540289,-0.489877,0.2435036,0.8428949
1.282902241,-0.5130582,-0.1117045,-0.2930447,-0.4908338,0.2469184,0.8429203
1.285412788,-0.4513538,-0.1117045,-0.415013,-0.4903429,0.2469107,0.841463
1.287923336,-0.5747626,-0.1117045,-0.415013,-0.4854771,0.2424836,0.8385175
1.290433884,-0.7598758,-0.1117045,-0.2930447,-0.482563,0.2395426,0.8394688
1.292944431,-0.6981714,-0.1716226,-0.2930447,-0.4829995,0.2478183,0.8385602
1.295455456,-0.5747626,-0.1716226,-0.415013,-0.4874286,0.2434765,0.8399813
1.297966003,-0.5747626,0.008131608,-0.2320606,-0.4849588,0.2463633,0.8346608
1.300476551,-0.636467,0.06804967,-0.3540289,-0.4908369,0.2454466,0.8385364
1.302987099,-0.5747626,0.1279677,-0.3540289,-0.4903583,0.2439851,0.8394972
1.30549717,-0.636467,0.008131608,-0.3540289,-0.4889067,0.2405547,0.8350994
1.308007717,-0.5747626,-0.2914587,-0.2930447,-0.4957308,0.2450024,0.839987
1.310518742,-0.5747626,-0.1117045,-0.2930447,-0.4918083,0.2469197,0.8404903
1.313029289,-0.7598758,-0.1716226,-0.5369813,-0.4854537,0.2463788,0.8390332
1.315539837,-0.5747626,-0.2914587,-0.4759972,-0.488903,0.2420253,0.8389974
1.318050385,-0.5747626,0.008131608,-0.4759972,-0.4869337,0.2434609,0.8356089
1.320560932,-0.636467,-0.1117045,-0.415013,-0.4908659,0.2410699,0.8399604
1.323071957,-0.5130582,-0.2914587,-0.3540289,-0.4913304,0.2454595,0.8419371
1.325582028,-0.636467,-0.2914587,-0.415013,-0.4869671,0.237615,0.8336207
1.335624218,-0.6981714,-0.3513767,-0.2930447,-0.4927886,0.2454543,0.83562
1.335624218,-0.6981714,-0.3513767,-0.2930447,-0.4927886,0.2454543,0.83562
1.338135243,-0.5130582,-0.2914587,-0.415013,-0.4874326,0.2434842,0.8428965
1.34064579,-0.4513538,-0.2315406,-0.415013,-0.4844735,0.2468591,0.8395234
1.343156338,-0.5130582,0.008131608,-0.3540289,-0.4898641,0.2439709,0.8356107
1.345666885,-0.3896495,-0.2315406,-0.2930447,-0.4923343,0.2405922,0.838984
1.348176956,-0.4513538,-0.3513767,-0.2320606,-0.4864505,0.2429755,0.8375489
1.350687504,-0.636467,-0.2315406,-0.2930447,-0.4893635,0.2464072,0.8380589
1.353198528,-0.4513538,-0.4112948,-0.3540289,-0.4908463,0.2434945,0.836578
1.355709076,-0.4513538,-0.3513767,-0.2320606,-0.4864471,0.2439542,0.8394998
1.358219624,-0.5747626,-0.2914587,-0.2930447,-0.4874283,0.2429833,0.8375483
1.360730171,-0.5130582,-0.2914587,-0.1100923,-0.4859585,0.2444435,0.8419331
1.363240719,-0.3279451,-0.1716226,-0.1710764,-0.4898821,0.2420356,0.8399685
1.365751743,-0.3896495,-0.2315406,-0.2930447,-0.488916,0.2405729,0.8419014
1.368261337,-0.4513538,-0.3513767,-0.2320606,-0.4898763,0.2444874,0.8467892
1.370772362,-0.5747626,-0.4112948,-0.1100923,-0.4898914,0.2410686,0.8423904
1.373282909,-0.3896495,-0.4112948,-0.3540289,-0.4888954,0.242503,0.8356001
1.375793457,-0.3896495,-0.4112948,-0.2930447,-0.4898761,0.2430091,0.839976
1.378304005,-0.4513538,-0.2914587,-0.1100923,-0.4869523,0.241527,0.8404526
1.380815029,-0.3279451,-0.2914587,-0.3540289,-0.4869461,0.2410221,0.8336468
1.383325577,-0.2045363,-0.2315406,-0.2930447,-0.4893842,0.2434919,0.83998
1.385836125,-0.3896495,-0.4112948,-0.1710764,-0.489878,0.243013,0.8414335
1.388346672,-0.4513538,-0.3513767,-0.2930447,-0.4830495,0.2400345,0.8399581
1.390856743,-0.5130582,-0.2315406,-0.3540289,-0.4864716,0.2385833,0.8331426
1.393367291,-0.3896495,-0.3513767,-0.2320606,-0.4898944,0.2395968,0.8380064
1.395878315,-0.4513538,-0.4712129,-0.2320606,-0.4835401,0.2395491,0.8389823
1.398388863,-0.4513538,-0.2315406,-0.1710764,-0.4820621,0.2405006,0.8351039
1.40089941,-0.3896495,-0.4112948,-0.2930447,-0.4801293,0.2365886,0.8341036
1.403409958,-0.3279451,-0.2315406,-0.2930447,-0.4825493,0.2419789,0.8404591
1.405920506,-0.3279451,-0.05178645,-0.415013,-0.48496,0.2473509,0.8400127
1.40843153,-0.3279451,-0.2315406,-0.2320606,-0.4903577,0.2439838,0.8390114
1.410941124,-0.3896495,-0.2914587,-0.1710764,-0.4873889,0.2498027,0.8395439
1.413452149,-0.2045363,-0.2315406,-0.2930447,-0.4918062,0.2479009,0.8434129
1.415962696,-0.2662407,-0.531131,-0.2320606,-0.488404,0.2439722,0.8404702
1.418473244,-0.2045363,-0.531131,-0.2320606,-0.4835215,0.2424682,0.8385188
1.420983791,-0.2662407,-0.4712129,-0.1710764,-0.4864081,0.2492965,0.8351681
1.423494816,-0.3279451,-0.2315406,-0.1100923,-0.4839956,0.2453989,0.8409702
1.426005364,-0.2045363,-0.1117045,-0.1100923,-0.4894159,0.2391205,0.8433474
1.428515911,-0.2045363,-0.1117045,-0.1710764,-0.4899111,0.2376589,0.8413925
1.431026459,-0.1428319,-0.1716226,-0.1100923,-0.4894076,0.2395968,0.8394643
1.43353653,-0.1428319,-0.2914587,-0.1100923,-0.4849845,0.2429652,0.8380357
1.436047077,-0.2662407,-0.2914587,-0.2320606,-0.4889568,0.2327709,0.8364973
1.438557625,-0.2045363,-0.2914587,-0.2320606,-0.4840097,0.2414856,0.8336524
1.441068649,-0.01942312,-0.1716226,-0.1100923,-0.4864538,0.242982,0.8399782
1.443579197,-0.1428319,-0.1117045,-0.2320606,-0.4898961,0.2391075,0.8370309
1.446089745,0.1039857,-0.3513767,-0.1710764,-0.4884262,0.2390894,0.8346027
1.448600292,0.2890988,-0.1716226,-0.1100923,-0.4884094,0.2429975,0.8399769
1.451111317,0.16569,-0.2914587,-0.1710764,-0.491824,0.2444873,0.8409576
1.453620911,-0.2662407,-0.2315406,-0.1710764,-0.4898854,0.241057,0.8380176
1.456131935,-0.08112751,-0.05178645,-0.1100923,-0.4879085,0.2439554,0.835612
1.458642483,-0.1428319,-0.05178645,-0.1100923,-0.4874296,0.2429859,0.83852
1.461153031,-0.08112751,-0.4712129,-0.1710764,-0.4830419,0.2405122,0.8365607
1.463663578,0.04228127,-0.2914587,0.07286017,-0.4864595,0.2415153,0.8375377
1.466174602,0.04228127,-0.1716226,0.07286017,-0.4879376,0.2395787,0.837036
1.46868515,0.1039857,-0.05178645,-0.04910814,-0.4864675,0.2405457,0.8389878
1.471195698,0.04228127,-0.1716226,-0.2320606,-0.4859729,0.2420086,0.8414286
1.473706245,0.04228127,-0.2914587,-0.1100923,-0.4879292,0.2410402,0.837533
1.476216316,0.16569,-0.1716226,0.01187601,-0.4859642,0.2429768,0.8394926
1.478726864,0.04228127,0.008131608,-0.2320606,-0.4884011,0.2434738,0.8360938
1.481237411,0.04228127,-0.1117045,-0.04910814,-0.4849908,0.2414998,0.8360811
1.483748436,0.04228127,-0.1716226,0.07286017,-0.4874293,0.2434778,0.8404672
1.486258983,-0.01942312,-0.2315406,-0.04910814,-0.4874336,0.2429936,0.8414351
1.488769531,0.1039857,0.06804967,-0.1100923,-0.4913742,0.238156,0.8409095
1.491280079,0.16569,-0.05178645,-0.1710764,-0.4888916,0.2439735,0.8394982
1.493791103,0.1039857,-0.2914587,-0.1710764,-0.4908365,0.2459385,0.8404835
1.496300697,0.16569,-0.2914587,0.01187601,-0.4879178,0.2429884,0.8380338
1.498811722,-0.01942312,-0.1716226,-0.04910814,-0.4878915,0.2463852,0.834173
1.501322269,-0.01942312,-0.2914587,-0.1100923,-0.4844989,0.2419827,0.8360851
1.503832817,0.1039857,-0.2914587,0.07286017,-0.4840514,0.2361484,0.8399276
1.506343365,0.16569,-0.1117045,0.1338443,-0.4849988,0.2405302,0.8375312
1.508853912,0.1039857,-0.05178645,-0.04910814,-0.482062,0.2414857,0.839484
1.511364937,-0.08112751,0.06804967,0.07286017,-0.4835254,0.2424759,0.8414339
1.513875484,0.16569,-0.05178645,0.01187601,-0.4864481,0.2444487,0.8424187
1.516386032,0.2273944,-0.1716226,-0.1100923,-0.4918266,0.2444925,0.842901
1.518896103,0.16569,-0.1117045,-0.1710764,-0.4904154,0.2357224,0.8438066
1.52140665,0.2273944,-0.1117045,-0.04910814,-0.4894079,0.2391049,0.8375171
1.523917198,0.2273944,-0.1716226,0.07286017,-0.4893689,0.2454324,0.8375656
1.526428223,0.1039857,-0.05178645,0.01187601,-0.4874472,0.2415425,0.8448249
1.52893877,0.16569,-0.1117045,-0.1100923,-0.4878815,0.2473509,0.8312653
1.531449318,0.04228127,-0.05178645,-0.1100923,-0.4932804,0.2449714,0.8356159
1.533959865,0.16569,-0.05178645,-0.04910814,-0.4874482,0.2410519,0.8433636
1.53647089,0.3508032,0.1279677,0.1338443,-0.4894139,0.2391166,0.8418899
1.538980484,0.04228127,0.008131608,-0.04910814,-0.4894302,0.2366855,0.842843
1.541491508,0.1039857,-0.1117045,0.01187601,-0.486959,0.2405548,0.840931
1.544002056,0.2273944,-0.1716226,0.07286017,-0.4908493,0.2430078,0.8365743
1.546512604,0.2273944,-0.05178645,0.01187601,-0.4927998,0.2444912,0.8394994
1.549023151,0.2890988,0.008131608,-0.1100923,-0.4917963,0.2478815,0.8361251
1.551533699,0.04228127,0.008131608,0.01187601,-0.485424,0.2507542,0.8371233
1.554044723,0.2890988,-0.05178645,0.01187601,-0.4830031,0.2473329,0.8390422
1.556555271,0.2273944,-0.05178645,0.01187601,-0.4873809,0.2507722,0.8380938
1.559065819,-0.01942312,-0.2315406,0.01187601,-0.48987,0.2439825,0.8399834
1.561575889,0.16569,-0.1117045,-0.04910814,-0.4869237,0.2454118,0.8370813
1.564086437,0.04228127,-0.1716226,-0.1100923,-0.486929,0.244437,0.836588
1.566596985,0.1039857,-0.1117045,0.01187601,-0.4898907,0.2410673,0.8419045
1.569108009,0.1039857,-0.05178645,0.01187601,-0.4840079,0.2439452,0.8433883
1.571618557,0.2273944,-0.2315406,-0.1100923,-0.4849828,0.2434545,0.8390111
1.574129105,0.04228127,-0.2315406,-0.04910814,-0.4874249,0.2439619,0.8394991
1.576639652,0.1039857,-0.1117045,-0.1100923,-0.4864298,0.2468758,0.840008
1.5791502,0.16569,-0.05178645,0.01187601,-0.4879379,0.2400719,0.839469
1.581660271,0.04228127,-0.05178645,-0.04910814,-0.4835451,0.2390662,0.8404362
1.584171295,-0.01942312,-0.1117045,0.01187601,-0.4913651,0.2396162,0.8409206
1.586681843,0.1039857,-0.1117045,0.07286017,-0.4928208,0.2420692,0.8438534
1.58919239,0.1039857,-0.05178645,0.01187601,-0.4927882,0.2459462,0.8375671
1.591702938,-0.01942312,-0.05178645,0.07286017,-0.4894026,0.2400796,0.8380104
1.594213486,0.1039857,-0.05178645,0.1338443,-0.4864514,0.24347,0.8404678
1.59672451,-0.1428319,-0.2315406,-0.04910814,-0.4849964,0.2420034,0.842401
1.599235058,-0.01942312,0.06804967,-0.1100923,-0.4849607,0.2473522,0.8404986
1.601745605,0.04228127,0.06804967,0.07286017,-0.486938,0.2439619,0.840957
1.604255676,-0.01942312,-0.1716226,0.01187601,-0.4923706,0.2362297,0.8457525
1.606766224,0.1039857,0.008131608,-0.04910814,-0.4894076,0.2395968,0.8394643
1.609276771,0.04228127,-0.1117045,-0.1100923,-0.4913425,0.2425275,0.837542
1.611787796,-0.01942312,-0.2315406,0.01187601,-0.4869527,0.241035,0.8385054
1.614298344,0.1039857,-0.1117045,-0.1710764,-0.4869186,0.2468797,0.8400077
1.616808891,0.04228127,-0.2914587,-0.1710764,-0.4884002,0.2429793,0.8331749
1.619319439,-0.01942312,-0.1117045,-0.04910814,-0.4888896,0.2439696,0.8380406
1.621829986,-0.1428319,0.008131608,0.01187601,-0.4859703,0.2410183,0.8351051
1.624340057,-0.01942312,0.008131608,0.01187601,-0.4879059,0.2439502,0.8336685
1.626851082,-0.08112751,-0.1716226,-0.1100923,-0.4864632,0.2410299,0.8380198
1.629361629,-0.08112751,-0.2914587,-0.04910814,-0.4903921,0.2386324,0.8399421
1.631872177,0.04228127,-0.2315406,-0.1100923,-0.4923002,0.2464368,0.8404863
1.634382725,-0.1428319,0.008131608,-0.2320606,-0.4933034,0.2425533,0.8414276
1.636893272,-0.1428319,-0.05178645,-0.1710764,-0.4888863,0.2439632,0.8356113
1.639404297,-0.08112751,-0.2914587,-0.1100923,-0.488878,0.2454246,0.8361084
1.641914844,-0.01942312,-0.2914587,-0.1710764,-0.4854594,0.2449121,0.8365927
1.644425392,-0.08112751,-0.1117045,-0.1100923,-0.4903663,0.2430156,0.8409474
1.646935463,-0.2045363,0.008131608,-0.04910814,-0.4884291,0.2395878,0.8389791
1.649446011,-0.2662407,0.008131608,-0.1100923,-0.484982,0.2444384,0.8429055
1.651956558,-0.2662407,-0.05178645,-0.1710764,-0.485465,0.2454157,0.8429126
1.654467583,-0.2045363,-0.1117045,-0.2320606,-0.490344,0.245435,0.8356216
1.65697813,-0.08112751,-0.05178645,-0.2930447,-0.4879065,0.2449366,0.8385346
1.659488678,-0.1428319,-0.2914587,-0.04910814,-0.4879299,0.2410415,0.8380188
1.661999226,-0.2662407,-0.2315406,-0.2320606,-0.490362,0.2434997,0.8399794
1.664509773,-0.3279451,0.06804967,-0.2930447,-0.4889123,0.2400732,0.8370391
1.667019844,-0.2662407,-0.1117045,-0.1710764,-0.4898648,0.2439722,0.8360965
1.669530392,-0.2662407,-0.05178645,-0.2320606,-0.4888893,0.2434764,0.8356076
1.672041416,-0.1428319,-0.05178645,-0.1100923,-0.4894069,0.2395955,0.8389785
1.674551964,-0.3279451,-0.2914587,-0.2320606,-0.4884084,0.242503,0.837058
1.677062511,-0.3279451,-0.1117045,-0.2320606,-0.4849884,0.242973,0.8409509
1.679573059,-0.2662407,-0.05178645,-0.04910814,-0.485959,0.2429665,0.8356058
1.682084083,-0.2662407,-0.1716226,-0.1710764,-0.4884265,0.2395826,0.8370356
1.684594631,-0.3279451,-0.2315406,-0.3540289,-0.486969,0.2395891,0.8438386
1.687105179,-0.3896495,-0.2315406,-0.3540289,-0.4869631,0.2395774,0.8394659
1.68961525,-0.2662407,-0.1716226,-0.1100923,-0.490862,0.2410621,0.8370452
1.692125797,-0.01942312,-0.1716226,-0.04910814,-0.4927791,0.2474064,0.8375783
1.694636345,-0.2662407,-0.2315406,-0.2320606,-0.4913274,0.2459463,0.8419408
1.697147369,-0.2045363,-0.2315406,-0.1710764,-0.4893912,0.2420279,0.8385112
1.699657917,-0.2045363,-0.1117045,0.01187601,-0.4844929,0.2429562,0.8360926
1.702168465,-0.3279451,-0.05178645,-0.2320606,-0.4874433,0.2405496,0.8375296
1.704679012,-0.2662407,-0.1716226,-0.2320606,-0.4928178,0.2415708,0.8394769
1.70718956,-0.08112751,-0.1117045,-0.1100923,-0.4903704,0.2420382,0.8394823
1.709700584,-0.2662407,-0.1117045,-0.1100923,-0.4918254,0.2435048,0.8375491
1.712210178,-0.3896495,-0.2315406,-0.2320606,-0.486922,0.2459011,0.8380568
1.714721203,-0.3896495,-0.3513767,-0.2930447,-0.4889006,0.2425133,0.839487
1.71723175,-0.3279451,-0.2914587,-0.415013,-0.494759,0.2450064,0.8443604
1.719742298,-0.2045363,-0.3513767,-0.1100923,-0.4825039,0.2487866,0.838082
1.722252846,-0.2662407,-0.4112948,-0.1710764,-0.4859472,0.2454066,0.8380537
1.72476387,-0.2662407,-0.1716226,-0.1710764,-0.4879576,0.2366622,0.8384712
1.727274418,-0.4513538,-0.1716226,-0.1710764,-0.4820443,0.2448993,0.8419394
1.729784965,-0.3279451,-0.2315406,-0.1710764,-0.4844832,0.2454002,0.8399981
1.732295036,-0.3279451,-0.2315406,-0.1710764,-0.4923163,0.2425275,0.8346262
1.734805584,-0.3279451,-0.1716226,-0.1710764,-0.4923036,0.2454582,0.8385354
1.737316132,-0.2045363,-0.2315406,-0.2930447,-0.4874534,0.2385988,0.8360571
1.739826679,-0.3279451,-0.2315406,-0.2930447,-0.4899105,0.2366725,0.8365265
1.742337704,-0.2045363,-0.3513767,-0.2320606,-0.4869423,0.2434778,0.841925
1.744848251,-0.2662407,-0.2315406,-0.2320606,-0.4840254,0.2400384,0.8384998
1.747358799,-0.4513538,-0.1117045,-0.1710764,-0.4840406,0.2390831,0.8452944
1.749869347,-0.3896495,-0.05178645,-0.1710764,-0.4898747,0.2439916,0.8433844
1.752379417,-0.3896495,-0.2315406,0.01187601,-0.4874266,0.2434726,0.8385237
1.754889965,-0.3279451,-0.1716226,-0.1100923,-0.4918106,0.2464317,0.8400008
1.757400989,-0.2662407,-0.1117045,-0.2320606,-0.4894072,0.2400887,0.8414115
1.759911537,-0.2045363,-0.1716226,-0.1710764,-0.4874297,0.2420007,0.8341398
1.762422085,-0.2045363,-0.2914587,-0.2320606,-0.4903644,0.2420266,0.8351097
1.764932632,-0.3279451,-0.4112948,-0.2930447,-0.4869514,0.2420176,0.8419138
1.767443657,-0.2662407,-0.2315406,-0.1710764,-0.485976,0.2405367,0.8370447
1.769954205,-0.3896495,-0.2315406,-0.1710764,-0.4844689,0.24685,0.8361224
1.772464752,-0.2045363,-0.2315406,-0.2320606,-0.4854733,0.2439542,0.8424156
1.774974823,-0.2045363,-0.3513767,-0.1710764,-0.4894005,0.2410609,0.8409331
1.777485371,-0.3279451,-0.1117045,-0.2930447,-0.487451,0.2390868,0.8365467
1.779995918,-0.3279451,-0.2914587,-0.2320606,-0.4884141,0.2410363,0.8346176
1.779995918,-0.3279451,-0.2914587,-0.2320606,-0.4884141,0.2410363,0.8346176
1.78501749,-0.3279451,-0.2315406,-0.1100923,-0.4874266,0.2434726,0.8385237
1.78501749,-0.3279451,-0.2315406,-0.1100923,-0.4874266,0.2434726,0.8385237
1.787528038,-0.08112751,-0.1117045,-0.2930447,-0.4864498,0.2429742,0.837063
1.790038586,-0.2045363,-0.1117045,-0.415013,-0.4859365,0.2473561,0.8390403
1.792549133,-0.3896495,-0.1716226,-0.2930447,-0.4898838,0.2415463,0.8389931
1.795060158,-0.3279451,-0.2315406,-0.3540289,-0.4943163,0.2362258,0.8384633
1.800080776,-0.3279451,-0.1716226,-0.1710764,-0.4923582,0.2376835,0.8433343
1.800080776,-0.3279451,-0.1716226,-0.1710764,-0.4923582,0.2376835,0.8433343
1.802591324,-0.3279451,-0.1117045,-0.2320606,-0.4884265,0.2395826,0.8370356
1.805101871,-0.2662407,-0.1716226,-0.2320606,-0.4923313,0.2410789,0.8389877
1.807612419,-0.2045363,-0.05178645,-0.2320606,-0.4918323,0.2430259,0.8404605
1.810122967,-0.2662407,-0.2315406,-0.2320606,-0.4859719,0.2415141,0.8385097
1.812633991,-0.2662407,-0.2914587,-0.04910814,-0.4840336,0.239562,0.842383
1.815144539,-0.2045363,-0.2315406,-0.04910814,-0.4854814,0.2419995,0.8394855
1.81765461,-0.2662407,-0.2315406,-0.04910814,-0.4835214,0.2434533,0.842899
1.820165157,-0.2045363,-0.2315406,-0.1710764,-0.4893809,0.2434855,0.8375507
1.822675705,-0.1428319,-0.2315406,0.01187601,-0.4937776,0.2444989,0.8394987
1.825186253,-0.01942312,-0.2315406,-0.04910814,-0.4903727,0.2415502,0.8389927
1.827697277,-0.1428319,-0.1117045,-0.04910814,-0.4874704,0.236169,0.837496
1.830207825,-0.01942312,-0.4112948,-0.1100923,-0.4845142,0.2410274,0.8428797
1.832718372,-0.08112751,-0.2315406,-0.04910814,-0.4815458,0.2453692,0.8370848
1.83522892,0.04228127,-0.2315406,-0.1100923,-0.4845149,0.2400435,0.8389854
1.837739944,0.2273944,-0.2315406,-0.04910814,-0.4899077,0.2386376,0.8433434
1.840249538,0.2890988,0.06804967,-0.04910814,-0.4894035,0.2405742,0.8409294
1.842760563,0.1039857,-0.2315406,-0.1710764,-0.4913456,0.2410556,0.8331581
1.84527111,-0.01942312,-0.2914587,-0.04910814,-0.4879178,0.2429884,0.8380338
1.847781658,0.16569,-0.1716226,0.07286017,-0.4893862,0.2425107,0.8370574
1.850292206,0.16569,-0.2914587,-0.1710764,-0.4903607,0.2434971,0.8390076
1.852802753,-0.01942312,-0.3513767,-0.1100923,-0.4869039,0.2488214,0.8380792
1.855313778,-0.01942312,-0.2914587,-0.04910814,-0.485943,0.2449056,0.8327055
1.857824326,0.16569,-0.3513767,-0.1100923,-0.486934,0.2439541,0.8380418
1.860334396,-0.08112751,-0.2315406,0.01187601,-0.4864568,0.2424953,0.8399745
1.862844944,0.04228127,-0.1716226,-0.1100923,-0.4894068,0.2405806,0.8433586
1.865355492,0.04228127,-0.1117045,-0.1100923,-0.4903593,0.2434945,0.8380359
1.867866039,0.04228127,-0.1716226,-0.1100923,-0.488894,0.2434855,0.8390086
1.870377064,-0.01942312,-0.1117045,0.01187601,-0.4850115,0.2395697,0.8423824
1.872887611,0.16569,-0.05178645,-0.04910814,-0.485479,0.2424875,0.8399751
1.875398159,0.1039857,-0.2315406,0.01187601,-0.4879162,0.2424926,0.8346291
1.877908707,0.04228127,-0.1716226,-0.1100923,-0.4850079,0.2380849,0.8331398
1.880419731,0.1039857,-0.1117045,-0.04910814,-0.4859505,0.2454131,0.840483
1.882929325,-0.08112751,-0.1716226,0.01187601,-0.4888999,0.2434971,0.8433813
1.88544035,-0.08112751,-0.1716226,-0.04910814,-0.4918427,0.2415683,0.8414211
1.887950897,0.1039857,-0.2315406,0.01187601,-0.4898784,0.2425211,0.8394864
1.890461445,0.1039857,-0.1716226,-0.1100923,-0.4923416,0.2396213,0.8399483
1.892971992,-0.08112751,-0.1117045,-0.04910814,-0.4844849,0.2449109,0.8390226
1.89548254,0.04228127,-0.1117045,-0.04910814,-0.4810884,0.2395155,0.8336394
1.897993565,0.16569,-0.1716226,-0.04910814,-0.4830291,0.244428,0.8448502
1.900504112,0.04228127,-0.2315406,0.01187601,-0.4849914,0.2424863,0.8409472
1.90301466,0.04228127,-0.05178645,-0.1710764,-0.4855128,0.2361497,0.8360398
1.905524731,0.16569,0.008131608,-0.04910814,-0.4894176,0.2386311,0.8423721
1.908035278,0.2273944,-0.05178645,0.07286017,-0.4894042,0.2405754,0.8414152
1.910545826,0.16569,0.06804967,0.01187601,-0.4884027,0.2439696,0.8394985
1.91305685,0.2273944,-0.1716226,0.01187601,-0.4898533,0.2469055,0.8409775
1.915567398,0.2890988,-0.2315406,-0.04910814,-0.4889033,0.2415334,0.8370502
1.918077946,0.1039857,-0.2315406,-0.1100923,-0.4903693,0.2425288,0.8409436
1.920588493,-0.01942312,-0.2315406,-0.04910814,-0.4908386,0.2449573,0.837561
1.923099041,0.1039857,-0.1716226,-0.04910814,-0.4864267,0.2473626,0.8400118
1.925609112,-0.01942312,-0.1117045,-0.1100923,-0.484005,0.2434468,0.8390118
1.928120136,0.1039857,-0.1117045,-0.04910814,-0.4830313,0.2414766,0.8331673
1.930630684,0.1039857,0.008131608,-0.1100923,-0.4864762,0.2395775,0.8409238
1.933141232,0.04228127,-0.1716226,-0.1710764,-0.4879282,0.2405457,0.8346142
1.935651779,0.04228127,-0.1716226,-0.1710764,-0.4830142,0.2448915,0.8361084
1.938162327,0.1039857,-0.1716226,-0.04910814,-0.4869523,0.241527,0.8404526
1.940673351,0.3508032,-0.05178645,0.07286017,-0.4893839,0.2429987,0.837547
1.943183899,0.2890988,-0.1117045,-0.1100923,-0.4869507,0.2410312,0.8370478
1.945694447,0.1039857,-0.2315406,-0.1100923,-0.4879028,0.2454221,0.8380524
1.948204517,0.04228127,-0.1117045,-0.1100923,-0.483993,0.2444086,0.8346465
1.950715065,-0.01942312,-0.1716226,-0.04910814,-0.4884008,0.2429806,0.8336607
1.953225613,-0.08112751,-0.05178645,-0.1100923,-0.4883814,0.2468835,0.8370916
1.955736637,0.1039857,0.1279677,-0.1100923,-0.4903216,0.2488395,0.8346759
1.958247185,0.1039857,0.1279677,0.01187601,-0.4918474,0.2405922,0.8404419
1.960757732,-0.01942312,-0.1117045,0.01187601,-0.4893895,0.2425172,0.8394867
1.96326828,-0.08112751,-0.2315406,-0.1710764,-0.4859692,0.242494,0.8409466
1.965778828,0.04228127,-0.1117045,-0.1710764,-0.4835408,0.2395504,0.8394681
1.968289852,-0.08112751,-0.2914587,-0.1710764,-0.4845099,0.2405264,0.8375315
1.970799446,0.04228127,-0.2315406,0.01187601,-0.4854797,0.2415037,0.8360808
1.973310471,0.1039857,-0.1716226,0.01187601,-0.4864635,0.2415231,0.8404528
1.975821018,0.1039857,-0.1117045,0.01187601,-0.4864659,0.2400499,0.8355831
1.978331566,-0.01942312,-0.1117045,-0.04910814,-0.4849787,0.2444319,0.8404762
1.980842113,0.1039857,-0.05178645,-0.1710764,-0.4879092,0.2439567,0.8360978
1.983353138,-0.01942312,-0.1117045,-0.1100923,-0.4893639,0.2459152,0.8361118
1.985863686,0.1039857,-0.1117045,-0.04910814,-0.4928102,0.2420485,0.8360797
1.988374233,0.16569,-0.2315406,-0.04910814,-0.4884285,0.2395865,0.8384932
1.990884304,0.1039857,-0.05178645,-0.1710764,-0.4869587,0.2410467,0.8428781
1.993394852,-0.1428319,-0.1117045,-0.1710764,-0.4874193,0.2444434,0.8375595
1.995905399,-0.01942312,-0.2315406,-0.1100923,-0.4884014,0.243967,0.8385268
1.998416424,0.04228127,-0.1716226,-0.1100923,-0.4898761,0.2430091,0.839976
2.000926971,-0.1428319,-0.1716226,-0.1100923,-0.4879469,0.2386117,0.8394578
2.003437519,-0.1428319,-0.1117045,0.01187601,-0.4888852,0.2454389,0.8414528
2.005948067,-0.08112751,-0.1117045,-0.1100923,-0.485956,0.2434532,0.8356096
2.008458614,-0.01942312,-0.1716226,-0.1100923,-0.4869497,0.2415218,0.8385091
2.010969639,-0.2662407,-0.1716226,-0.1710764,-0.4898831,0.241545,0.8385072
2.013479233,-0.1428319,-0.2914587,0.01187601,-0.4898674,0.2439774,0.8380399
2.015990257,-0.08112751,-0.2914587,-0.1710764,-0.4937866,0.2430388,0.8394875
2.018500805,-0.08112751,-0.1117045,-0.1710764,-0.492341,0.23962,0.8394624
2.021011353,-0.01942312,0.06804967,-0.1100923,-0.4874277,0.242982,0.8370624
2.0235219,0.04228127,0.008131608,0.01187601,-0.483512,0.2444203,0.8404771
2.026032925,0.1039857,-0.1716226,-0.1100923,-0.4869233,0.2459037,0.8390285
2.028543472,-0.1428319,-0.2315406,-0.04910814,-0.4927869,0.2459436,0.8365954
2.03105402,0.1039857,-0.05178645,0.07286017,-0.4869658,0.2385975,0.8370291
2.033564568,-0.08112751,-0.2914587,-0.2930447,-0.4874366,0.2425069,0.8414314
2.036074638,-0.1428319,-0.1716226,-0.1100923,-0.4898725,0.2425094,0.8351137
2.038585186,-0.08112751,-0.1716226,-0.04910814,-0.4845216,0.2390714,0.8394638
2.04109621,-0.01942312,-0.1716226,0.07286017,-0.4884451,0.2376486,0.8418793
2.043606758,-0.01942312,-0.1716226,0.01187601,-0.488894,0.2434855,0.8390086
2.046117306,-0.2045363,-0.2914587,-0.2320606,-0.4903354,0.2464032,0.8336856
2.048627853,-0.08112751,-0.2315406,-0.1710764,-0.4878939,0.2458972,0.8336834
2.051138401,-0.08112751,-0.2914587,0.01187601,-0.4854587,0.2449108,0.8361069
2.053649426,-0.2045363,-0.4112948,-0.1100923,-0.4893991,0.2420434,0.8443415
2.056159019,-0.1428319,-0.05178645,-0.1710764,-0.4898677,0.2444706,0.840473
2.058670044,-0.2045363,-0.1716226,-0.1710764,-0.4903677,0.2430182,0.8419191
2.061180592,-0.2662407,-0.2914587,-0.3540289,-0.4884177,0.2425211,0.84386
2.063691139,-0.08112751,-0.1716226,-0.2320606,-0.4849921,0.2424875,0.841433
2.066201687,-0.01942312,-0.1716226,-0.2930447,-0.4830202,0.243918,0.836101
2.068712711,-0.1428319,-0.1117045,-0.04910814,-0.4884281,0.2400784,0.8404404
2.071223259,-0.1428319,-0.1716226,-0.1100923,-0.4849878,0.2429717,0.840465
2.073733807,-0.1428319,-0.1117045,-0.1100923,-0.4854523,0.2463762,0.8380615
2.076244354,-0.2045363,-0.1716226,-0.3540289,-0.4864468,0.243461,0.8370667
2.078754425,-0.3279451,-0.2315406,-0.1100923,-0.4864648,0.2415257,0.8414246
2.081264973,-0.2045363,-0.1716226,-0.1710764,-0.4874576,0.2390998,0.8414053
2.08377552,-0.1428319,-0.1716226,-0.2320606,-0.4879402,0.2395839,0.8389794
2.086286545,-0.2045363,-0.05178645,-0.2320606,-0.4893909,0.2425198,0.8404584
2.088797092,-0.2045363,-0.2315406,-0.04910814,-0.4903319,0.248367,0.8400167
2.09130764,-0.1428319,-0.1716226,-0.04910814,-0.4908134,0.2503269,0.8434322
2.093818188,-0.2045363,-0.05178645,0.01187601,-0.4859167,0.2517509,0.8444183
2.096329212,-0.1428319,-0.1117045,-0.04910814,-0.4835228,0.2424708,0.8394905
2.09883976,-0.08112751,-0.2315406,-0.1710764,-0.486958,0.2410454,0.8423923
2.101349831,-0.3279451,-0.05178645,-0.2320606,-0.4913258,0.2454505,0.8385361
2.103860378,-0.3279451,0.008131608,-0.2320606,-0.4898757,0.243501,0.8419231
2.106370926,-0.2662407,-0.2315406,-0.1100923,-0.4854914,0.2400487,0.838013
2.108881474,-0.2662407,-0.3513767,-0.04910814,-0.4869678,0.2386014,0.8384867
2.111392498,-0.1428319,-0.05178645,-0.1100923,-0.4884047,0.2439735,0.8409561
2.113903046,-0.2045363,-0.1117045,0.07286017,-0.4893788,0.2444667,0.8404733
2.116413593,-0.3279451,-0.1117045,-0.04910814,-0.4869463,0.2425004,0.84046
2.118924141,-0.3279451,-0.1716226,-0.1100923,-0.4839809,0.2473406,0.8390416
2.121434689,-0.2045363,-0.2914587,-0.1100923,-0.4874213,0.2444473,0.839017
2.123944759,-0.2045363,0.008131608,-0.1710764,-0.4879382,0.2405651,0.841902
2.126455307,-0.2662407,-0.1117045,-0.1100923,-0.4893894,0.2435023,0.8438668
2.128966332,-0.3279451,-0.1716226,-0.1100923,-0.4913304,0.2454595,0.8419371
2.131476879,-0.2662407,0.06804967,-0.1100923,-0.4874276,0.2439671,0.8414426
2.133987427,-0.1428319,0.06804967,-0.1100923,-0.4879325,0.2410467,0.8399623
2.136497974,-0.1428319,-0.1117045,-0.04910814,-0.4864862,0.2376267,0.8394513
2.139008999,-0.1428319,-0.05178645,-0.1710764,-0.4869427,0.2429859,0.8399779
2.141519547,-0.2045363,-0.2315406,-0.1100923,-0.4879361,0.2415464,0.8448246
2.144029617,-0.2662407,0.008131608,-0.1710764,-0.4835208,0.2424669,0.8380329
2.146540165,-0.1428319,-0.05178645,-0.04910814,-0.4845003,0.2419853,0.8370568
2.149050713,-0.3896495,-0.05178645,-0.1710764,-0.4884098,0.2425056,0.8380297
2.15156126,-0.3279451,0.008131608,-0.1710764,-0.4854797,0.2424888,0.840461
2.154071808,-0.2045363,0.06804967,-0.2320606,-0.490869,0.2395981,0.8355765
2.156582832,-0.08112751,0.008131608,-0.1710764,-0.490403,0.2371761,0.8413885
2.15909338,-0.2045363,-0.05178645,-0.04910814,-0.4835432,0.2390623,0.8389786
2.161603928,-0.2045363,-0.05178645,-0.1100923,-0.4850256,0.2356565,0.8350647
2.164114475,-0.1428319,-0.1117045,-0.1100923,-0.4918264,0.2430142,0.8360878
2.166624546,-0.1428319,-0.2315406,-0.1100923,-0.4898717,0.2434932,0.839008
2.169135094,-0.08112751,-0.1117045,-0.1100923,-0.4849838,0.2429639,0.8375499
2.171646118,-0.08112751,-0.1117045,-0.1710764,-0.4864669,0.2405444,0.838502
2.179177761,-0.08112751,0.06804967,-0.2320606,-0.4918027,0.2474012,0.8385507
2.181688786,-0.01942312,0.008131608,-0.1710764,-0.4888892,0.2454467,0.844368
2.184199333,-0.08112751,-0.1117045,-0.2320606,-0.4874199,0.2444447,0.8380453
2.186709404,-0.1428319,-0.1117045,0.01187601,-0.4874133,0.2444318,0.8331867
2.189219952,-0.08112751,-0.05178645,0.01187601,-0.4898864,0.2415515,0.8409365
2.191730499,-0.01942312,0.06804967,-0.1100923,-0.4903473,0.2454414,0.8380508
2.194241047,-0.2045363,-0.1117045,-0.1710764,-0.4864258,0.2468681,0.8370928
2.196751595,-0.2662407,-0.2315406,-0.04910814,-0.485483,0.2424953,0.8428903
2.199262619,0.04228127,-0.1117045,-0.04910814,-0.4883957,0.2454337,0.8409673
2.201773167,-0.01942312,-0.1716226,-0.1100923,-0.4874423,0.2420254,0.8433711
2.204283714,-0.08112751,-0.1716226,-0.1100923,-0.4889055,0.2430156,0.845321
2.206794262,-0.01942312,-0.1716226,-0.1100923,-0.4894359,0.2352188,0.8404025
2.209304333,-0.08112751,-0.05178645,-0.1710764,-0.4864421,0.2454221,0.8424261
2.21181488,-0.01942312,-0.2315406,-0.1710764,-0.4888863,0.2439632,0.8356113
2.214325905,-0.08112751,-0.2914587,-0.1100923,-0.4898867,0.2420447,0.8433695
2.216836453,-0.08112751,-0.2315406,-0.1710764,-0.4849787,0.245417,0.8448563
2.219347,-0.1428319,-0.2315406,-0.04910814,-0.4864722,0.2395697,0.8380086
2.221857548,-0.01942312,-0.1117045,0.01187601,-0.4908472,0.243989,0.8394969
2.224368095,-0.01942312,-0.1716226,-0.04910814,-0.4908432,0.2449663,0.840962
2.22687912,-0.2045363,-0.4112948,-0.04910814,-0.4864555,0.2424927,0.8390027
2.229389668,-0.1428319,-0.2914587,-0.1710764,-0.4884268,0.2390907,0.8350886
2.231899738,0.04228127,-0.2315406,-0.1100923,-0.4908596,0.2415502,0.8375348
2.234410286,0.04228127,-0.2315406,-0.04910814,-0.4878978,0.2459049,0.8365986
2.236920834,-0.08112751,-0.2914587,-0.1100923,-0.4844863,0.2439283,0.8356142
2.239431381,-0.01942312,-0.2315406,-0.1710764,-0.486937,0.2434674,0.8380381
2.241942406,-0.08112751,-0.2315406,-0.1710764,-0.4898703,0.2444758,0.8424165
2.244452953,-0.01942312,-0.2914587,-0.1100923,-0.4923102,0.2454712,0.843394
2.246963501,-0.1428319,-0.2315406,-0.1100923,-0.4898788,0.2420291,0.8375392
2.249474049,-0.08112751,-0.1117045,-0.1100923,-0.4879352,0.2410519,0.8419057
2.251984119,-0.1428319,-0.3513767,-0.2320606,-0.4933097,0.2410879,0.8394729
2.254494667,-0.01942312,-0.1716226,-0.1710764,-0.485993,0.2381069,0.8384837
2.257005692,-0.08112751,-0.1716226,-0.1100923,-0.4850025,0.2400448,0.8380134
2.259516239,-0.01942312,-0.4112948,-0.04910814,-0.4908873,0.238156,0.8423674
2.262026787,-0.01942312,-0.2914587,0.2558126,-0.4839904,0.2444034,0.8327031
2.264537335,-0.1428319,-0.2315406,-0.1710764,-0.4815534,0.2448915,0.8404821
2.267047882,-0.01942312,-0.3513767,-0.1710764,-0.4903783,0.2410686,0.8409325
2.269558907,-0.01942312,-0.2315406,-0.1100923,-0.4903811,0.2391036,0.8341156
2.272069454,-0.08112751,-0.3513767,0.01187601,-0.4889223,0.2391075,0.8399468
2.274579525,-0.01942312,-0.2914587,-0.2930447,-0.4898961,0.2400926,0.8414112
2.277090073,0.04228127,-0.05178645,-0.04910814,-0.4864738,0.2400655,0.8414134
2.27960062,-0.08112751,-0.2914587,-0.1710764,-0.4859993,0.2366416,0.836529
2.282111168,-0.1428319,-0.1716226,-0.1710764,-0.4869356,0.2444499,0.8414466
2.284622192,-0.01942312,-0.2914587,-0.1100923,-0.4864257,0.2478532,0.841473
2.28713274,0.1039857,-0.3513767,-0.04910814,-0.4859479,0.2454079,0.8385396
2.289643288,-0.08112751,-0.1716226,0.01187601,-0.4849885,0.2419879,0.8365707
2.292153835,0.1039857,-0.2315406,0.01187601,-0.4879061,0.2454286,0.8404817
2.294664383,-0.2045363,-0.1716226,-0.04910814,-0.4869427,0.2429859,0.8399779
2.297174454,-0.1428319,-0.1716226,-0.1710764,-0.4893866,0.2420188,0.8351102
2.299685478,-0.1428319,-0.2315406,0.07286017,-0.4913519,0.2405754,0.8355836
2.302196026,-0.01942312,-0.3513767,0.01187601,-0.4908422,0.2444718,0.838043
2.304706574,-0.01942312,-0.2315406,-0.04910814,-0.4859679,0.2424914,0.8399748
2.307217121,-0.2045363,-0.3513767,-0.1710764,-0.4835178,0.2429536,0.8380367
2.309727669,-0.08112751,-0.2315406,-0.1100923,-0.4830258,0.2434364,0.8380407
2.312238693,-0.2045363,-0.2315406,-0.1100923,-0.4859639,0.2424836,0.8370596
2.314749241,-0.2045363,-0.05178645,0.01187601,-0.4903724,0.241057,0.8365597
2.317259789,-0.08112751,0.008131608,-0.2320606,-0.4913455,0.2420408,0.8375382
2.319769859,-0.1428319,-0.3513767,-0.1710764,-0.4884121,0.2420175,0.8375401
2.322280407,-0.2045363,-0.2914587,-0.04910814,-0.4894049,0.2405767,0.8419011
2.324790955,-0.3279451,-0.1117045,-0.1100923,-0.4879359,0.240068,0.8380114
2.327301979,-0.1428319,-0.3513767,0.07286017,-0.4874181,0.2434557,0.8322076
2.329812527,-0.08112751,-0.4112948,-0.04910814,-0.4849845,0.2429652,0.8380357
2.332323074,0.1039857,-0.2914587,-0.1100923,-0.4864481,0.2444487,0.8424187
2.334833622,-0.1428319,-0.2315406,-0.04910814,-0.4879235,0.2425069,0.8399735
2.33734417,-0.3279451,-0.1117045,0.01187601,-0.4859712,0.2424979,0.8424041
2.33985424,-0.08112751,-0.2315406,-0.04910814,-0.4888973,0.2425069,0.8370577
2.342365265,-0.08112751,-0.05178645,-0.1710764,-0.4928176,0.2410776,0.8370439
2.347386837,-0.1428319,-0.4712129,-0.1100923,-0.4884115,0.2420163,0.8370543
2.349896908,-0.2045363,-0.1716226,-0.1710764,-0.4889153,0.2405716,0.8414155
2.352407456,-0.1428319,-0.2315406,-0.2320606,-0.4884155,0.2410389,0.8355893
2.35491848,-0.01942312,-0.3513767,-0.1710764,-0.488912,0.2405651,0.8389862
2.357429028,-0.08112751,-0.2315406,-0.2320606,-0.4850161,0.2385937,0.8414032
2.359939575,-0.01942312,-0.2315406,-0.2930447,-0.4884031,0.2434777,0.8375514
2.362449646,-0.1428319,-0.1117045,0.01187601,-0.4869186,0.2468797,0.8400077
2.364960194,-0.1428319,-0.1117045,-0.1100923,-0.4874426,0.2415334,0.8414239
2.367470741,-0.08112751,-0.1117045,-0.1100923,-0.4908642,0.2415592,0.8409359
2.369981766,-0.08112751,-0.2914587,-0.2320606,-0.4864545,0.2429833,0.8404641
2.372492313,-0.01942312,-0.1117045,-0.1100923,-0.484977,0.2449212,0.8414516
2.375002861,-0.2045363,0.008131608,-0.04910814,-0.4898667,0.2439761,0.8375541
2.377513409,-0.1428319,-0.1117045,-0.1100923,-0.4903691,0.2410505,0.8341305
2.380023956,0.04228127,-0.1716226,-0.1710764,-0.4864539,0.2419969,0.8355981
2.380023956,0.04228127,-0.1716226,-0.1710764,-0.4864539,0.2419969,0.8355981
2.382534981,-0.01942312,-0.1716226,-0.1100923,-0.4830145,0.2453847,0.8385415
2.385044575,-0.08112751,-0.1716226,-0.04910814,-0.4849681,0.2453963,0.8370826
2.387555599,-0.2045363,-0.3513767,-0.2320606,-0.4854777,0.2424849,0.8390034
2.392576695,-0.1428319,-0.05178645,-0.1100923,-0.4899064,0.238635,0.8423717
2.392576695,-0.1428319,-0.05178645,-0.1100923,-0.4899064,0.238635,0.8423717
2.395087242,-0.08112751,-0.1117045,-0.1710764,-0.4893538,0.247866,0.8375843
2.397598267,-0.1428319,-0.2914587,-0.2930447,-0.4869227,0.2459024,0.8385427
2.400108814,-0.2045363,-0.2315406,-0.1100923,-0.4844839,0.2444164,0.8361038
2.402619362,-0.2045363,-0.2315406,-0.1100923,-0.4854885,0.2395503,0.8336366
2.405129433,-0.2662407,-0.3513767,-0.04910814,-0.4879081,0.2454325,0.8419393
2.40763998,-0.3896495,-0.2914587,-0.1100923,-0.4864361,0.2454105,0.8380533
2.410150528,-0.2045363,-0.1117045,-0.04910814,-0.4854517,0.2463749,0.8375756
2.412661553,-0.08112751,-0.1716226,-0.1710764,-0.4883873,0.2468952,0.8414643
2.4151721,-0.2045363,-0.1716226,-0.1710764,-0.4893779,0.2429871,0.8331743
2.417682648,-0.2045363,-0.1117045,0.01187601,-0.4898618,0.2444589,0.8361003
2.420193195,-0.08112751,-0.3513767,-0.1710764,-0.4879178,0.2429884,0.8380338
2.422703743,-0.1428319,-0.1716226,-0.1100923,-0.4844793,0.2444073,0.8327028
2.425214768,-0.08112751,0.008131608,-0.1100923,-0.4874146,0.2454195,0.8385386
2.427725315,-0.2045363,-0.1716226,-0.04910814,-0.4898854,0.2420421,0.8423978
2.430235386,-0.08112751,-0.4112948,0.07286017,-0.4859769,0.2410312,0.8399636
2.432745934,-0.1428319,-0.3513767,-0.04910814,-0.4884084,0.2434881,0.8414382
2.435256481,-0.1428319,-0.2315406,-0.1100923,-0.4888926,0.244468,0.8424171
2.437767029,-0.1428319,-0.2315406,-0.1100923,-0.4894169,0.2376447,0.837506
2.440278053,-0.1428319,-0.2315406,-0.1710764,-0.4850075,0.239562,0.8394672
2.442788601,-0.08112751,-0.1117045,-0.1100923,-0.4859676,0.2419982,0.8375418
2.445299149,-0.1428319,-0.1716226,-0.04910814,-0.485976,0.2405367,0.8370447
2.447809696,-0.2045363,-0.1716226,-0.1100923,-0.4825393,0.2429446,0.8375515
2.450319767,-0.01942312,-0.05178645,-0.1710764,-0.4859926,0.2385989,0.8404308
2.452830315,-0.08112751,-0.1117045,0.01187601,-0.4855008,0.2380966,0.8360547
2.455340862,-0.1428319,0.1878858,-0.2320606,-0.4849945,0.2410144,0.8365632
2.457851887,-0.08112751,-0.05178645,-0.1100923,-0.4898607,0.2449495,0.8375615
2.460362434,-0.1428319,-0.1716226,-0.1100923,-0.4923283,0.2415657,0.8389915
2.462872982,-0.08112751,-0.2914587,-0.1100923,-0.488904,0.2415347,0.8375361
2.46538353,-0.01942312,-0.2914587,-0.1710764,-0.4864539,0.2419969,0.8355981
2.467894554,0.1039857,-0.2914587,-0.1710764,-0.4889053,0.2425224,0.842888
2.470405102,0.1039857,-0.1716226,-0.1100923,-0.488387,0.246402,0.8390313
2.472915172,0.16569,-0.2914587,-0.1710764,-0.4884026,0.2449548,0.8438786
2.47542572,0.2273944,-0.2914587,-0.2320606,-0.4854611,0.2444228,0.8356173
2.477936268,-0.1428319,-0.1716226,-0.1100923,-0.4898798,0.2415385,0.8360779
2.480446815,-0.08112751,-0.05178645,0.1338443,-0.488897,0.2429988,0.8390049
2.48295784,-0.01942312,-0.05178645,-0.1710764,-0.4908576,0.2415463,0.8360773
2.485468387,-0.08112751,0.008131608,-0.1710764,-0.4889073,0.2415412,0.8399654
2.487978935,-0.01942312,-0.1117045,-0.1710764,-0.4874246,0.2434687,0.8370661
2.490489483,-0.01942312,-0.2914587,-0.1100923,-0.4829925,0.2482973,0.8356487
2.492999554,0.04228127,-0.1716226,-0.04910814,-0.4864325,0.2458959,0.8375713
2.495510101,0.04228127,-0.05178645,-0.1100923,-0.4839996,0.2444215,0.8395051
2.498020649,0.04228127,-0.1117045,-0.1710764,-0.482547,0.2424669,0.8409488
2.500531673,-0.01942312,-0.2315406,-0.1710764,-0.4884387,0.239114,0.8438339
2.503042221,-0.08112751,-0.05178645,-0.1100923,-0.4884528,0.2361858,0.8408965
2.505552769,0.04228127,-0.1716226,-0.04910814,-0.4893979,0.2410557,0.8389896
2.508063316,0.04228127,-0.2315406,-0.1100923,-0.4854613,0.244916,0.8380503
2.510574341,-0.08112751,-0.1117045,-0.1100923,-0.4854831,0.2415102,0.8385101
2.513084888,0.04228127,-0.1716226,0.01187601,-0.4879158,0.2439697,0.8409564
2.515595436,0.04228127,-0.1716226,-0.04910814,-0.4888926,0.2434829,0.8380368
2.518105507,-0.08112751,-0.2315406,-0.1100923,-0.4874363,0.2420137,0.8389984
2.520616054,-0.08112751,-0.1716226,0.01187601,-0.4874327,0.2424991,0.8385162
2.523126602,-0.08112751,0.008131608,-0.04910814,-0.4844978,0.2434584,0.8419266
2.525637627,0.04228127,-0.2315406,-0.04910814,-0.4884365,0.2386169,0.8399433
2.528148174,-0.08112751,-0.1716226,0.07286017,-0.4908692,0.2410764,0.8423897
2.530658722,-0.2045363,-0.05178645,0.01187601,-0.4864314,0.2473716,0.8434128
2.533169269,-0.01942312,-0.1716226,0.01187601,-0.4869674,0.2390933,0.8404339
2.535679817,0.04228127,-0.2315406,-0.04910814,-0.4874406,0.2415296,0.8399664
2.538189888,0.16569,-0.1716226,0.01187601,-0.4874407,0.2405444,0.8355862
2.540700436,0.16569,-0.2315406,0.01187601,-0.4859719,0.2415141,0.8385097
2.54321146,-0.3279451,-0.1716226,-0.04910814,-0.4874453,0.2405535,0.8389872
2.545722008,-0.01942312,-0.2315406,0.07286017,-0.4845003,0.2419853,0.8370568
2.548232555,0.04228127,-0.1117045,0.07286017,-0.4884013,0.2449522,0.842907
2.550743103,-0.08112751,-0.1716226,0.01187601,-0.4893592,0.2468913,0.8370909
2.553254127,0.04228127,-0.2914587,0.01187601,-0.4888826,0.2444486,0.8351293
2.555764675,-0.01942312,-0.2315406,0.01187601,-0.486447,0.2449393,0.8438799
2.558275223,0.04228127,-0.1716226,-0.04910814,-0.4864548,0.2424914,0.8385169
2.560785293,0.16569,-0.2315406,-0.1100923,-0.4864592,0.2420072,0.8394849
2.563295841,0.16569,-0.1716226,0.01187601,-0.4879465,0.2391037,0.841405
2.565806389,0.1039857,-0.1716226,0.07286017,-0.4913355,0.2430065,0.8346305
2.568316936,-0.01942312,-0.1716226,0.01187601,-0.49037,0.241545,0.8370492
2.570827961,-0.08112751,-0.2315406,-0.04910814,-0.4893903,0.2415334,0.8355924
2.573338509,-0.01942312,-0.2914587,-0.04910814,-0.4913478,0.2425379,0.8414289
2.575849056,0.1039857,-0.2914587,0.01187601,-0.4893959,0.2410518,0.837532
2.578359604,0.1039857,-0.3513767,0.01187601,-0.4830332,0.2424656,0.839005
2.580870628,0.1039857,-0.05178645,0.01187601,-0.4835182,0.2424617,0.8360895
2.583380222,-0.01942312,0.06804967,0.07286017,-0.4864663,0.239558,0.8336359
2.585891247,-0.08112751,-0.1117045,-0.04910814,-0.4854716,0.2444435,0.843391
2.588401794,-0.01942312,-0.1117045,-0.1710764,-0.4859815,0.2410403,0.8433646
2.590912342,0.04228127,-0.1117045,-0.1710764,-0.4893995,0.2415515,0.8423944
2.59342289,-0.01942312,-0.2914587,-0.1100923,-0.4869193,0.246881,0.8404936
2.595933914,0.1039857,-0.1716226,-0.04910814,-0.4879228,0.2425056,0.8394876
2.598444462,0.04228127,-0.1716226,0.07286017,-0.4893712,0.2449444,0.837076
2.600955009,0.16569,-0.3513767,0.07286017,-0.4874213,0.2434622,0.8346369
2.603465557,0.04228127,-0.2315406,0.07286017,-0.4893611,0.2478803,0.8429287
2.605975628,-0.01942312,-0.05178645,-0.1710764,-0.4884157,0.2415321,0.8380223
2.608486175,-0.01942312,-0.05178645,-0.1710764,-0.4898653,0.2449586,0.8409626
2.610996723,-0.01942312,-0.2315406,-0.1100923,-0.4864371,0.245905,0.8409723
2.613507748,-0.08112751,-0.2315406,0.01187601,-0.487459,0.2391024,0.8423771
2.616018295,-0.01942312,-0.1716226,0.07286017,-0.4864699,0.2400577,0.8384982
2.618528843,0.04228127,-0.3513767,0.01187601,-0.4844775,0.2458817,0.8380584
2.62103939,0.1039857,-0.3513767,-0.1100923,-0.4859636,0.2419904,0.8346266
2.623550415,0.04228127,-0.1716226,-0.04910814,-0.4869391,0.2424862,0.8351156
2.626060009,0.1039857,-0.2914587,-0.2320606,-0.4849988,0.2405302,0.8375312
2.628571033,-0.01942312,-0.1716226,-0.1100923,-0.4908549,0.2435113,0.8428942
2.631081581,-0.08112751,-0.1716226,-0.04910814,-0.489875,0.2444848,0.8458174
2.633592129,-0.01942312,-0.2315406,0.01187601,-0.4849871,0.2429704,0.8399792
2.636102676,0.04228127,-0.3513767,-0.1100923,-0.4898607,0.2449495,0.8375615
2.638613224,-0.2045363,-0.4112948,-0.1100923,-0.4884121,0.2420175,0.8375401
2.641124248,-0.1428319,-0.2315406,-0.04910814,-0.4898724,0.2434945,0.8394938
2.643634796,-0.01942312,-0.1117045,-0.1710764,-0.4878989,0.2454143,0.8351373
2.646145344,-0.08112751,-0.1716226,-0.2320606,-0.4815515,0.2448876,0.8390245
2.648655414,-0.08112751,-0.3513767,-0.1710764,-0.4879172,0.2429871,0.837548
2.651165962,-0.1428319,-0.531131,-0.1710764,-0.4883903,0.2464085,0.8414606
2.65367651,-0.2045363,-0.2914587,-0.2930447,-0.4869523,0.241527,0.8404526
2.656187534,0.04228127,-0.1716226,-0.04910814,-0.4888986,0.2425094,0.8380294
2.658698082,-0.01942312,-0.1716226,-0.2930447,-0.4923279,0.2420576,0.8409386
2.66120863,0.1039857,-0.1716226,-0.1100923,-0.4908462,0.2444796,0.8409582
2.663719177,-0.1428319,-0.1716226,-0.1100923,-0.4864305,0.245892,0.8361137
2.666230202,-0.08112751,-0.1117045,0.01187601,-0.4844935,0.2439426,0.8409587
2.668740749,0.04228127,-0.2315406,0.01187601,-0.4889417,0.2361897,0.8408961
2.67125082,-0.1428319,-0.1716226,-0.1710764,-0.4869587,0.2400616,0.8384979
2.673761368,-0.1428319,-0.1117045,-0.2320606,-0.4913408,0.2430168,0.8385174
2.676271915,0.04228127,-0.1117045,-0.04910814,-0.4894018,0.2420486,0.8462849
2.678782463,0.04228127,-0.3513767,0.01187601,-0.4874166,0.2454234,0.8399962
2.681293011,0.04228127,-0.2914587,-0.1710764,-0.4903383,0.2469016,0.838062
2.683804035,-0.08112751,-0.1716226,-0.1710764,-0.4849887,0.2434662,0.8433838
2.686314583,-0.1428319,-0.1716226,-0.04910814,-0.4883997,0.2444564,0.8395022
2.68882513,-0.08112751,-0.1716226,-0.1100923,-0.4874136,0.2459101,0.8399999
2.691335678,-0.1428319,0.008131608,-0.1710764,-0.4864644,0.2420176,0.8433717
2.693845749,-0.2045363,0.1878858,-0.2320606,-0.4845025,0.2424824,0.8409475
2.696356296,-0.08112751,0.008131608,-0.1100923,-0.4864468,0.243461,0.8370667
2.698867321,0.04228127,-0.2315406,-0.1710764,-0.4854947,0.2400552,0.8404423
2.701377869,-0.01942312,-0.2315406,-0.1710764,-0.4879121,0.2444551,0.8404742
2.703888416,-0.2045363,-0.2315406,-0.1100923,-0.4908803,0.238635,0.8394559
2.706398964,-0.1428319,-0.2315406,-0.1100923,-0.4889133,0.2405677,0.839958
2.708909511,-0.1428319,-0.1716226,-0.2930447,-0.4854554,0.2449043,0.8336776
2.711420536,-0.1428319,-0.05178645,-0.04910814,-0.4888799,0.2454285,0.837566
2.713931084,-0.3279451,-0.05178645,-0.2320606,-0.4879155,0.2434765,0.8385234
2.716441154,-0.1428319,-0.1117045,-0.1710764,-0.4893993,0.2400732,0.8355812
2.718951702,-0.2045363,-0.2914587,-0.1100923,-0.4884138,0.2415282,0.8365647
2.72146225,-0.3279451,-0.2914587,-0.1710764,-0.4893992,0.2410583,0.8399613
2.723972797,-0.3279451,-0.1716226,-0.1100923,-0.4888879,0.2444589,0.8390161
2.726483822,-0.2045363,-0.2315406,-0.2320606,-0.4888859,0.2454402,0.8419387
2.728994369,-0.2045363,-0.2315406,-0.1100923,-0.4898755,0.2420227,0.8351099
2.731504917,-0.2045363,-0.1716226,-0.04910814,-0.4879126,0.2429781,0.834147
2.734015465,-0.2045363,-0.2914587,-0.1710764,-0.486922,0.2459011,0.8380568
2.736525536,-0.1428319,-0.1117045,-0.1710764,-0.4844956,0.2429613,0.838036
2.739036083,-0.2045363,-0.1117045,-0.04910814,-0.4878755,0.2493095,0.835653
2.741547108,-0.3896495,-0.1716226,-0.1100923,-0.4908316,0.2464214,0.8390297
2.744057655,-0.08112751,-0.1716226,-0.1710764,-0.4888972,0.243492,0.8414379
2.746568203,-0.2045363,-0.2914587,-0.1710764,-0.4893778,0.2449573,0.8419346
2.749078751,-0.2045363,-0.3513767,-0.2320606,-0.4913369,0.243009,0.8356023
2.751589298,-0.2045363,-0.3513767,-0.1710764,-0.4830382,0.2419827,0.8404588
2.754100323,-0.08112751,-0.2315406,-0.1100923,-0.4835341,0.2405225,0.8389897
2.75661087,-0.08112751,-0.1117045,-0.2320606,-0.491828,0.24351,0.8394925
2.759120941,-0.1428319,-0.2315406,-0.04910814,-0.4903626,0.243501,0.8404652
2.761631489,-0.08112751,-0.3513767,-0.2320606,-0.4834887,0.2473303,0.8366126
2.764142036,-0.08112751,-0.1117045,-0.1710764,-0.4859642,0.2429768,0.8394926
2.766652584,-0.2045363,-0.3513767,-0.04910814,-0.4874523,0.2400745,0.8418986
2.769163608,-0.1428319,-0.2914587,-0.1100923,-0.4894162,0.2386285,0.8414003
2.771674156,-0.01942312,-0.05178645,-0.1100923,-0.4864514,0.24347,0.8404678
2.774184704,-0.2662407,-0.2914587,-0.04910814,-0.4879145,0.2439671,0.8399847
2.776695251,-0.08112751,-0.2315406,-0.1100923,-0.4913829,0.2362026,0.8384653
2.779205799,-0.01942312,-0.2914587,-0.1710764,-0.4918194,0.2444783,0.8375565
2.78171587,-0.08112751,-0.2315406,-0.04910814,-0.4859385,0.24736,0.8404979
2.784226894,-0.1428319,-0.1716226,-0.1100923,-0.4800687,0.2478003,0.8405055
2.786737442,-0.2045363,-0.1117045,-0.04910814,-0.4874316,0.2429897,0.8399776
2.78924799,-0.01942312,-0.1117045,0.01187601,-0.4913778,0.2376705,0.8413916
2.791758537,-0.1428319,-0.1117045,-0.1710764,-0.4879248,0.2425095,0.8409452
2.794269085,-0.2045363,-0.3513767,-0.1100923,-0.4879201,0.2434855,0.8419244
2.796780109,-0.2045363,-0.2315406,0.01187601,-0.4869389,0.2444564,0.8438759
2.799290657,-0.1428319,-0.05178645,0.01187601,-0.4878851,0.2478506,0.8361276
2.801801205,-0.01942312,-0.1716226,-0.1710764,-0.4869474,0.2410247,0.8346185
2.804311275,-0.08112751,-0.2315406,-0.1100923,-0.4849931,0.2419969,0.8399717
2.806821823,-0.1428319,-0.1117045,-0.1100923,-0.4874299,0.2434791,0.8409531
2.809332371,-0.1428319,-0.1716226,-0.04910814,-0.4908472,0.243989,0.8394969
2.811843395,-0.2045363,-0.3513767,-0.1710764,-0.4854611,0.2444228,0.8356173
2.814353943,-0.1428319,-0.2914587,-0.1100923,-0.4918241,0.2435022,0.8365774
2.81686449,-0.2662407,-0.1117045,0.07286017,-0.4888856,0.2439619,0.8351255
2.819375038,-0.2045363,-0.1716226,-0.2320606,-0.4830422,0.2419905,0.843374
2.821885586,-0.1428319,-0.1117045,0.01187601,-0.4849969,0.2405264,0.8360736
2.82439661,-0.08112751,-0.1117045,0.1338443,-0.4840397,0.2385886,0.8423756
2.826906681,-0.2045363,-0.2315406,-0.04910814,-0.4869721,0.2381173,0.8394547
2.829417229,-0.08112751,-0.2315406,-0.1100923,-0.4889099,0.2415463,0.8419088
2.831927776,-0.08112751,-0.3513767,-0.1100923,-0.4903667,0.2425236,0.8390002
2.834438324,-0.01942312,-0.2315406,-0.1710764,-0.4869463,0.2434855,0.8448402
2.836948872,0.04228127,-0.1716226,0.01187601,-0.48745,0.2395774,0.838008
2.839459896,-0.2045363,-0.2914587,0.01187601,-0.4869598,0.239571,0.8370366
2.841970444,-0.2045363,-0.3513767,-0.1710764,-0.4845055,0.2419957,0.8409438
2.844480991,-0.01942312,-0.2315406,-0.2930447,-0.486951,0.2415244,0.8394808
2.846991062,-0.08112751,-0.1716226,0.01187601,-0.4913602,0.240099,0.8394668
2.84950161,-0.1428319,-0.1716226,-0.04910814,-0.4869404,0.2424888,0.8360873
2.852012157,-0.08112751,-0.05178645,-0.1710764,-0.4879159,0.2429846,0.8365762
2.854523182,0.2273944,-0.3513767,-0.1100923,-0.486962,0.2400681,0.8409272
2.85703373,0.16569,-0.2914587,-0.04910814,-0.4864805,0.2390933,0.8418918
2.859544277,0.04228127,-0.2914587,0.01187601,-0.4854771,0.2424836,0.8385175
2.862054825,-0.1428319,-0.2914587,-0.04910814,-0.4854961,0.2390727,0.8370338
2.864565372,-0.1428319,-0.1117045,-0.04910814,-0.4908794,0.2381405,0.836537
2.867076397,0.04228127,-0.2315406,0.01187601,-0.4898931,0.2395942,0.8370346
2.869585991,-0.01942312,-0.1716226,-0.1100923,-0.487442,0.240547,0.8365579
2.872097015,0.04228127,-0.2914587,-0.1100923,-0.4854844,0.2415128,0.8394818
2.874607563,0.04228127,-0.4112948,-0.1710764,-0.4888889,0.2449535,0.8419349
2.877118111,-0.08112751,-0.2315406,-0.2320606,-0.4884037,0.243479,0.8380372
2.879628658,-0.08112751,0.008131608,-0.1710764,-0.4864672,0.2400525,0.8365548
2.882139683,-0.01942312,-0.05178645,0.07286017,-0.4893979,0.2410557,0.8389896
2.88465023,0.04228127,-0.1117045,-0.04910814,-0.4874313,0.2434817,0.8419247
2.887160778,-0.01942312,-0.2315406,-0.1710764,-0.4884211,0.2405573,0.837529
2.889671326,0.04228127,-0.05178645,-0.1710764,-0.4840147,0.2419879,0.8394864
2.892181396,-0.01942312,-0.05178645,-0.1100923,-0.4879064,0.2459218,0.8429148
2.894691944,-0.01942312,-0.1716226,0.01187601,-0.4893965,0.2410531,0.8380179
2.897202969,0.1039857,-0.05178645,-0.1100923,-0.4898705,0.2425055,0.8336561
2.899713516,-0.01942312,-0.1117045,-0.1100923,-0.4864309,0.2454001,0.8341665
2.902224064,-0.01942312,-0.1716226,-0.1100923,-0.4805957,0.2409821,0.8375378
2.904734611,-0.01942312,-0.3513767,-0.1710764,-0.4834945,0.2458636,0.8341722
2.907245159,-0.1428319,-0.2315406,-0.2320606,-0.485448,0.2468603,0.8370935
2.909756184,-0.1428319,-0.2914587,-0.1710764,-0.4903677,0.242033,0.8375389
2.912266731,0.04228127,-0.1716226,-0.1710764,-0.4879473,0.2381198,0.8375106
2.914776802,0.04228127,0.1279677,-0.04910814,-0.4893886,0.2420227,0.8365678
2.91728735,-0.08112751,-0.1117045,0.01187601,-0.4893669,0.2454285,0.836108
2.919797897,0.04228127,-0.2315406,0.01187601,-0.4879102,0.2444512,0.8390167
2.922308445,0.04228127,-0.2914587,-0.1100923,-0.4889164,0.2390959,0.8355741
2.924819469,0.16569,-0.1117045,-0.1100923,-0.4879482,0.2386143,0.8404295
2.927330017,0.1039857,-0.1117045,-0.04910814,-0.4835291,0.2419905,0.8419161
2.929840565,-0.08112751,-0.1117045,0.01187601,-0.4874227,0.2434648,0.8356086
2.932351112,0.1039857,-0.1716226,0.01187601,-0.4903574,0.2434906,0.8365783
2.93486166,0.04228127,-0.1117045,-0.1100923,-0.4889183,0.2400848,0.8414118
2.937371731,-0.1428319,0.06804967,-0.1100923,-0.4908389,0.2444654,0.8356138
2.939882278,-0.1428319,-0.1117045,-0.04910814,-0.4883917,0.2454259,0.8380521
2.942393303,-0.08112751,0.008131608,-0.1710764,-0.4869384,0.24347,0.8390099
2.944903851,0.16569,-0.1716226,-0.1710764,-0.4845113,0.240529,0.8385032
2.947414398,0.04228127,-0.2914587,-0.04910814,-0.4825513,0.2409976,0.8375365
2.949924946,-0.08112751,-0.1716226,0.01187601,-0.486955,0.240547,0.8380158
2.95243597,-0.08112751,-0.1716226,-0.1100923,-0.4878921,0.2473716,0.839039
2.954946518,-0.08112751,-0.1716226,-0.04910814,-0.4893731,0.2459334,0.8429138
2.957457066,-0.1428319,-0.1716226,-0.04910814,-0.490347,0.2459333,0.839998
2.959967136,-0.1428319,-0.2315406,-0.1100923,-0.4889156,0.2410648,0.8438485
2.962477684,-0.08112751,-0.1117045,-0.04910814,-0.4864518,0.2429781,0.8385206
2.964988232,0.04228127,-0.2914587,-0.1710764,-0.4874003,0.2468693,0.8346629
2.967499256,-0.1428319,-0.1117045,0.07286017,-0.4844745,0.2463685,0.8380621
2.967499256,-0.1428319,-0.1117045,0.07286017,-0.4844745,0.2463685,0.8380621
2.970009804,-0.01942312,-0.1716226,0.07286017,-0.4835178,0.2429536,0.8380367
2.975030899,0.1039857,-0.1117045,-0.04910814,-0.4854861,0.2410234,0.8385063
2.975030899,0.1039857,-0.1117045,-0.04910814,-0.4854861,0.2410234,0.8385063
2.977541447,0.04228127,-0.1117045,-0.04910814,-0.4839886,0.2458778,0.8380587
2.980052471,0.04228127,-0.2914587,-0.04910814,-0.4933034,0.2425533,0.8414276
2.982562065,0.04228127,-0.1117045,-0.04910814,-0.4918494,0.2405961,0.8418995
2.98507309,-0.01942312,-0.1117045,-0.1710764,-0.4908889,0.2376667,0.8413919
2.987583637,-0.01942312,-0.2914587,-0.04910814,-0.486948,0.2420111,0.8394845
2.992604733,0.16569,-0.2315406,-0.1710764,-0.4825189,0.246353,0.8380634
2.992604733,0.16569,-0.2315406,-0.1710764,-0.4825189,0.246353,0.8380634
2.995115757,0.04228127,-0.05178645,-0.1710764,-0.4854893,0.2410299,0.8409356
2.997626305,-0.2662407,-0.1716226,0.01187601,-0.4889087,0.2405586,0.8365569
3.000136852,-0.1428319,-0.1716226,0.01187601,-0.4869134,0.2468693,0.8361208
3.002646923,-0.08112751,-0.1117045,-0.04910814,-0.4888922,0.2449599,0.8443642
3.005157471,-0.08112751,-0.2315406,0.01187601,-0.4923312,0.2420641,0.8433679
3.007668018,-0.1428319,-0.2315406,-0.1710764,-0.4889143,0.2400771,0.8384967
3.010178566,-0.1428319,-0.2315406,-0.2320606,-0.4874299,0.2434791,0.8409531
3.01268959,-0.08112751,-0.2315406,-0.1710764,-0.4864345,0.2458998,0.8390288
3.015200138,0.04228127,-0.2315406,-0.04910814,-0.4830326,0.2424643,0.8385192
3.017710686,-0.01942312,-0.2315406,-0.04910814,-0.4830214,0.2449057,0.8414529
3.020221233,-0.2045363,0.008131608,-0.04910814,-0.4893782,0.2444654,0.8399875
3.022732258,-0.1428319,-0.1716226,-0.1710764,-0.4923139,0.2440006,0.8394959
3.025241852,-0.08112751,-0.4112948,-0.1710764,-0.4864772,0.2390869,0.8394625
3.027752876,0.04228127,-0.05178645,0.01187601,-0.4849942,0.2405212,0.8341302
3.030263424,0.04228127,-0.05178645,0.01187601,-0.4913469,0.2410582,0.8341298
3.032773972,0.04228127,-0.2315406,-0.04910814,-0.4864565,0.2429872,0.8419216
3.042816639,-0.2045363,-0.05178645,-0.04910814,-0.4849792,0.2429549,0.8341489
3.042816639,-0.2045363,-0.05178645,-0.04910814,-0.4849792,0.2429549,0.8341489
3.045327187,-0.01942312,-0.1716226,0.07286017,-0.4869347,0.2439554,0.8385277
3.047837257,-0.08112751,-0.2914587,0.01187601,-0.4869294,0.2439451,0.8346409
3.050347805,-0.01942312,-0.1716226,-0.1100923,-0.4869447,0.2420046,0.8370552
3.052858353,-0.1428319,-0.2315406,-0.1100923,-0.4869453,0.2429911,0.8419213
3.055369377,-0.1428319,-0.2315406,0.01187601,-0.4864625,0.2410286,0.837534
3.057879925,0.1039857,-0.1117045,-0.04910814,-0.4893873,0.2420201,0.8355961
3.060390472,0.04228127,-0.1117045,-0.1710764,-0.4888934,0.2424991,0.8341426
3.06290102,-0.01942312,-0.1117045,-0.1100923,-0.4874156,0.2449289,0.8370773
3.065412045,-0.2045363,-0.2315406,-0.1710764,-0.48643,0.247369,0.8424411
3.067922592,-0.01942312,-0.2315406,-0.1100923,-0.4869263,0.2454169,0.8390248
3.070432663,-0.01942312,-0.2914587,-0.04910814,-0.4874429,0.2420267,0.8438569
3.072943211,-0.1428319,-0.2315406,-0.04910814,-0.4869778,0.2366506,0.8370142
3.075453758,-0.08112751,-0.1716226,-0.04910814,-0.4859896,0.2390856,0.8404346
3.077964306,0.04228127,-0.1117045,-0.04910814,-0.4854777,0.2424849,0.8390034
3.08047533,-0.08112751,-0.1117045,-0.2320606,-0.4874053,0.2463865,0.8361168
3.082985878,-0.08112751,-0.1117045,-0.04910814,-0.4845029,0.2419905,0.8390003
3.085496426,-0.01942312,-0.2315406,0.07286017,-0.4859625,0.2434662,0.8404681
3.088006973,-0.08112751,-0.2914587,-0.04910814,-0.4879095,0.2444499,0.8385308
3.090517521,-0.1428319,-0.1716226,-0.1710764,-0.4859565,0.2444396,0.8404756
3.093027592,-0.08112751,-0.1117045,0.07286017,-0.4844805,0.2463801,0.8424349
3.095538139,-0.08112751,-0.1117045,-0.1710764,-0.4893799,0.2439761,0.839012
3.098049164,-0.08112751,-0.1117045,-0.04910814,-0.4879211,0.2429949,0.8404631
3.100559711,-0.08112751,-0.2315406,-0.04910814,-0.4874386,0.2425108,0.842889
3.103070259,-0.1428319,-0.1117045,-0.1710764,-0.4869086,0.2488305,0.8414802
3.105580807,-0.2662407,-0.1716226,-0.04910814,-0.4844802,0.2449018,0.8356217
3.108091831,0.1039857,-0.1117045,0.07286017,-0.4898691,0.243488,0.8370645
3.110602379,-0.08112751,-0.1117045,-0.1710764,-0.4898661,0.2439748,0.8370682
3.113112927,-0.08112751,-0.1716226,-0.1710764,-0.4849938,0.2419982,0.8404576
3.115622997,-0.08112751,-0.2315406,-0.1100923,-0.4859946,0.2376176,0.8375082
3.118133545,0.04228127,-0.05178645,-0.04910814,-0.4893832,0.2429975,0.8370611
3.120644093,0.04228127,0.008131608,-0.1100923,-0.4898975,0.2391101,0.8380027
3.12315464,-0.08112751,-0.1117045,-0.04910814,-0.4879392,0.2400745,0.8404407
3.125665665,0.04228127,-0.1117045,0.01187601,-0.4908776,0.2396149,0.8418927
3.128176212,0.04228127,-0.05178645,-0.04910814,-0.4874249,0.2439619,0.8394991
3.13068676,-0.1428319,-0.2315406,-0.1710764,-0.486918,0.2468784,0.8395218
3.133197308,-0.01942312,-0.1117045,-0.1710764,-0.4854977,0.2395684,0.8404386
3.135708332,-0.08112751,0.06804967,-0.1710764,-0.4830469,0.2400293,0.8380146
3.138217926,-0.08112751,-0.05178645,-0.1710764,-0.4859812,0.2405471,0.8409316
3.140728951,-0.1428319,0.06804967,0.07286017,-0.4835408,0.2395504,0.8394681
3.143239498,0.04228127,0.06804967,-0.04910814,-0.4889143,0.2400771,0.8384967
3.145750046,-0.01942312,-0.1716226,-0.1100923,-0.4928253,0.2396148,0.8360611
3.148260593,-0.01942312,-0.1117045,-0.1710764,-0.4908727,0.2391126,0.8360586
3.150771618,-0.01942312,-0.1716226,-0.1100923,-0.4908526,0.2430142,0.8390036
3.153282166,-0.01942312,-0.1117045,0.01187601,-0.4874516,0.2400732,0.8414128
3.155792713,-0.08112751,-0.05178645,0.01187601,-0.4884261,0.2400745,0.8389828
3.158303261,-0.08112751,-0.05178645,-0.1710764,-0.4888736,0.2459088,0.8351404
3.160813332,-0.08112751,0.008131608,-0.1100923,-0.4893706,0.243958,0.83221
3.163323879,-0.08112751,0.008131608,0.01187601,-0.4889106,0.2415476,0.8423947
3.165834427,-0.1428319,0.008131608,-0.1710764,-0.4864532,0.2419956,0.8351122
3.168345451,0.04228127,-0.1716226,-0.1100923,-0.4878981,0.2463981,0.8390316
3.170855999,-0.08112751,-0.1117045,0.07286017,-0.4859616,0.2429717,0.8375492
3.173366547,-0.01942312,-0.1716226,0.01187601,-0.4884475,0.2361755,0.8370095
3.175877094,-0.08112751,0.2478039,-0.04910814,-0.4879308,0.241536,0.8409378
3.178388119,-0.1428319,0.06804967,0.01187601,-0.4854834,0.2410183,0.8365629
3.180897713,-0.01942312,-0.05178645,0.01187601,-0.4815608,0.2439206,0.8414464
3.183408737,-0.1428319,-0.2315406,-0.1100923,-0.4830286,0.2424565,0.835604
3.185919285,-0.01942312,-0.1716226,-0.04910814,-0.4840083,0.2424682,0.8370609
3.188429833,0.1039857,0.1878858,-0.1100923,-0.4864305,0.245892,0.8361137
3.19094038,-0.1428319,-0.1716226,-0.1710764,-0.4874344,0.2410247,0.8331606
3.193450928,-0.1428319,-0.2914587,-0.1100923,-0.4830786,0.2356578,0.8413821
3.195961952,0.1039857,0.008131608,-0.04910814,-0.4869501,0.2410299,0.8365619
3.1984725,0.04228127,-0.1117045,-0.1710764,-0.4903517,0.2439722,0.8346387
3.200983048,-0.08112751,-0.05178645,0.01187601,-0.487427,0.2429807,0.8365765
3.203493118,-0.08112751,0.008131608,0.01187601,-0.4878915,0.2473703,0.8385532
3.206003666,-0.08112751,-0.1716226,-0.1710764,-0.4849758,0.2439335,0.8360997
3.208514214,-0.1428319,-0.2914587,-0.04910814,-0.4835024,0.244894,0.8356223
3.211025238,-0.08112751,-0.1716226,-0.2320606,-0.4835238,0.2419801,0.8380292
3.213535786,-0.08112751,-0.2315406,-0.04910814,-0.4845079,0.2405225,0.8360739
3.216046333,-0.1428319,-0.1117045,-0.1100923,-0.4874433,0.2405496,0.8375296
3.218556881,-0.08112751,-0.05178645,-0.04910814,-0.4849751,0.2449173,0.8399941
3.221067905,-0.2662407,-0.1716226,0.01187601,-0.4874345,0.2434881,0.844354
3.223578453,-0.01942312,-0.1716226,-0.1100923,-0.4888689,0.2478699,0.8404997
3.226088524,0.1039857,-0.3513767,-0.1100923,-0.4923136,0.2435074,0.8370629
3.228599072,-0.01942312,-0.3513767,0.01187601,-0.4878538,0.2527153,0.8351932
3.231109619,0.1039857,-0.1716226,-0.1100923,-0.4839869,0.2473523,0.8434143
3.233620167,0.04228127,-0.4112948,-0.04910814,-0.4835117,0.2449122,0.8424243
3.236130714,-0.08112751,-0.2315406,-0.1710764,-0.4874065,0.2473742,0.8414687
3.238641739,-0.2662407,-0.05178645,-0.2930447,-0.4874069,0.2468823,0.8395215
3.241152287,-0.2045363,-0.2914587,-0.2320606,-0.4854513,0.2468668,0.8395228
3.243662834,-0.08112751,-0.2914587,-0.04910814,-0.48743,0.242494,0.8365728
3.246173382,-0.2662407,-0.2914587,0.07286017,-0.4903887,0.239611,0.841893
3.248683453,-0.2662407,-0.2914587,-0.04910814,-0.4903813,0.2405819,0.8409287
3.251194,-0.2045363,-0.2914587,-0.2320606,-0.4893601,0.2473858,0.8400098
3.253705025,-0.1428319,-0.1117045,-0.1710764,-0.4859592,0.2434597,0.8380388
3.256215572,-0.01942312,-0.1716226,-0.1710764,-0.488894,0.2434855,0.8390086
3.25872612,-0.01942312,-0.05178645,0.01187601,-0.4854897,0.240538,0.8389885
3.261236668,-0.2045363,-0.2315406,-0.2320606,-0.4903777,0.2410673,0.8404466
3.263747215,-0.3279451,-0.2315406,-0.04910814,-0.4883911,0.2454246,0.8375663
3.26625824,-0.01942312,-0.1117045,-0.04910814,-0.4859866,0.2395723,0.8404382
3.268768787,-0.08112751,-0.2315406,-0.2320606,-0.488936,0.2366713,0.8389564
3.271278858,-0.3279451,-0.3513767,-0.1100923,-0.485429,0.2502714,0.8385772
3.273789406,-0.08112751,-0.2914587,-0.1710764,-0.4888799,0.2464136,0.8419461
3.276299954,-0.1428319,-0.1716226,-0.2320606,-0.4864391,0.2449237,0.8380497
3.278810501,-0.2045363,-0.1716226,0.07286017,-0.4864649,0.2405406,0.8370444
3.281321526,-0.2045363,-0.2914587,-0.1100923,-0.4850038,0.2400474,0.8389851
3.283832073,-0.2045363,-0.2914587,-0.1100923,-0.4835291,0.2419905,0.8419161
3.286342621,-0.08112751,-0.2315406,-0.1710764,-0.4908569,0.2425301,0.8399716
3.288853169,-0.08112751,-0.2914587,-0.04910814,-0.4942715,0.2430349,0.8365721
3.291364193,-0.2045363,-0.2315406,-0.04910814,-0.4898723,0.2444796,0.843874
3.293873787,-0.08112751,-0.2914587,0.07286017,-0.4933023,0.243044,0.8428889
3.296384811,-0.08112751,-0.3513767,-0.04910814,-0.4888826,0.2454337,0.8395094
3.298895359,-0.01942312,-0.1716226,-0.1100923,-0.4874189,0.2449354,0.8395066
3.301405907,0.1039857,-0.05178645,-0.1100923,-0.4889,0.2415269,0.834621
3.303916454,0.04228127,-0.1716226,-0.04910814,-0.4884105,0.2415217,0.8341355
3.306427002,-0.2045363,-0.2914587,-0.04910814,-0.4894112,0.2391114,0.8399464
3.308938027,-0.2662407,-0.05178645,-0.2320606,-0.4888819,0.2454324,0.8390235
3.311448574,-0.2045363,-0.05178645,-0.2320606,-0.4884394,0.2391153,0.8443198
3.313959122,-0.2662407,-0.2315406,-0.1100923,-0.4889174,0.2395903,0.8384929
3.316469193,-0.2662407,-0.2914587,-0.04910814,-0.484012,0.2419827,0.837543
3.31897974,-0.08112751,0.008131608,0.01187601,-0.486913,0.2473612,0.8380679
3.321490288,-0.08112751,-0.05178645,-0.1710764,-0.4864522,0.2424862,0.8365734
3.324001312,-0.1428319,-0.2914587,-0.1100923,-0.4854307,0.2487969,0.8332216
3.32651186,-0.01942312,-0.2914587,-0.1100923,-0.482524,0.244885,0.8351371
3.329022408,0.04228127,-0.1117045,-0.04910814,-0.4893678,0.245923,0.8390269
3.331532955,0.04228127,0.008131608,-0.04910814,-0.4879208,0.2434868,0.8424103
3.33404398,-0.08112751,-0.1716226,-0.1100923,-0.4898283,0.2503049,0.8380884
3.336554527,-0.08112751,-0.4712129,-0.1100923,-0.4864591,0.2429924,0.843865
3.339064598,-0.08112751,-0.3513767,-0.1710764,-0.4849888,0.2424811,0.8390037
3.341575146,-0.01942312,-0.2315406,-0.04910814,-0.4849828,0.2434545,0.8390111
3.344085693,-0.01942312,-0.1716226,-0.1100923,-0.4859779,0.2405406,0.8385023
3.346596241,-0.1428319,-0.1716226,0.01187601,-0.4830432,0.2405148,0.8375325
3.349106789,-0.08112751,-0.05178645,-0.04910814,-0.4869434,0.2420021,0.8360835
3.351617813,0.04228127,-0.1117045,-0.2320606,-0.4869573,0.2410441,0.8419064
3.354128361,-0.1428319,-0.2914587,-0.2320606,-0.48987,0.2449677,0.8443636
3.356638908,-0.1428319,-0.2914587,0.01187601,-0.4883766,0.2488447,0.842451
3.359149456,-0.08112751,-0.2914587,-0.1710764,-0.4879235,0.2425069,0.8399735
3.361659527,0.04228127,-0.2315406,-0.2320606,-0.4869474,0.2420098,0.8389987
3.364170075,-0.01942312,-0.1117045,-0.1100923,-0.4859849,0.2400616,0.8414137
3.366681099,-0.01942312,-0.2315406,0.01187601,-0.4884128,0.2420188,0.838026
3.369191647,-0.01942312,-0.1716226,-0.1100923,-0.4859329,0.2468564,0.834178
3.371702194,-0.01942312,-0.2315406,-0.1710764,-0.4874373,0.2425082,0.8419172
3.374212742,-0.08112751,-0.2315406,0.01187601,-0.4869507,0.2420163,0.841428
3.37672329,-0.1428319,-0.2315406,0.01187601,-0.485486,0.2420086,0.8428865
3.379234314,-0.2662407,-0.2315406,-0.1100923,-0.4864745,0.2400668,0.8418992
3.381744862,-0.2045363,-0.2914587,-0.1710764,-0.4840147,0.2419879,0.8394864
3.384254932,-0.08112751,-0.2315406,-0.04910814,-0.4888959,0.2434894,0.8404661
3.38676548,-0.08112751,-0.05178645,-0.2320606,-0.4908485,0.2439916,0.8404686
3.389276028,-0.2045363,-0.1716226,-0.1100923,-0.4869293,0.2449302,0.8390211
3.391786575,-0.08112751,-0.2914587,-0.1100923,-0.4864475,0.2434622,0.8375526
3.3942976,-0.01942312,-0.1716226,-0.1100923,-0.487437,0.242015,0.8394842
3.396808148,-0.01942312,0.008131608,-0.2930447,-0.4874142,0.2459114,0.8404858
3.399318695,-0.08112751,-0.1117045,-0.1710764,-0.4869372,0.2449457,0.8448514
3.401829243,-0.08112751,-0.2315406,-0.2320606,-0.4854954,0.2400565,0.8409282
3.404340267,-0.1428319,-0.05178645,0.01187601,-0.4859655,0.2429794,0.8404644
3.406849861,0.04228127,-0.2315406,-0.1710764,-0.4889096,0.2410531,0.8394758
3.409360886,0.04228127,-0.05178645,-0.1100923,-0.4894038,0.2410674,0.8433623
3.411871433,-0.01942312,-0.05178645,-0.04910814,-0.4879135,0.2434726,0.8370658
3.414381981,-0.08112751,-0.1117045,-0.04910814,-0.4810602,0.2453718,0.8395144
3.416892529,-0.01942312,-0.1716226,0.01187601,-0.4840132,0.2439555,0.8472751
3.419403076,0.04228127,-0.1716226,-0.04910814,-0.4864375,0.2454131,0.8390251
3.421914101,0.04228127,-0.05178645,-0.1710764,-0.488901,0.2420214,0.8375399
3.424424648,0.04228127,-0.1716226,-0.1100923,-0.4908666,0.2410712,0.8404462
3.426935196,0.1039857,-0.2315406,-0.1100923,-0.4845006,0.2424785,0.8394899
3.429445267,-0.08112751,-0.1716226,-0.04910814,-0.483489,0.2478235,0.8390456
3.431955814,-0.01942312,-0.2914587,-0.04910814,-0.490351,0.244956,0.838533
3.434466362,0.1039857,-0.2315406,-0.04910814,-0.484993,0.2429821,0.8443519
3.436977387,-0.01942312,-0.05178645,-0.04910814,-0.4879282,0.2415308,0.8389943
3.439487934,-0.08112751,-0.1117045,-0.1100923,-0.4840167,0.2410067,0.8365638
3.441998482,-0.1428319,-0.1716226,-0.1100923,-0.4830188,0.2449005,0.8395094
3.444509029,-0.01942312,-0.05178645,-0.04910814,-0.4888982,0.2439865,0.8443568
3.447019577,0.04228127,-0.1716226,-0.1100923,-0.4883821,0.2458997,0.8331973
3.449530602,-0.2045363,-0.2315406,-0.2320606,-0.4869137,0.2473625,0.8385538
3.452040672,-0.08112751,-0.2315406,0.01187601,-0.488884,0.2444512,0.8361009
3.45455122,-0.01942312,-0.3513767,-0.04910814,-0.4893798,0.2449612,0.8433922
3.457061768,-0.01942312,-0.1716226,-0.1710764,-0.4830512,0.2405303,0.8433627
3.459572315,0.1039857,-0.2315406,0.01187601,-0.4859768,0.2420163,0.8443438
3.462082863,0.04228127,-0.1117045,0.01187601,-0.4884164,0.2415334,0.8385082
3.464593887,0.16569,-0.2315406,-0.2320606,-0.485444,0.2478377,0.8385586
3.467104435,0.16569,-0.1716226,-0.1100923,-0.4840193,0.2410118,0.8385073
3.469614982,-0.01942312,-0.2315406,0.01187601,-0.4849792,0.2429549,0.8341489
3.472125053,-0.08112751,-0.2914587,-0.1100923,-0.4830462,0.2410132,0.8419089
3.474635601,0.04228127,-0.05178645,-0.04910814,-0.484992,0.2434727,0.8458132
3.477146149,0.04228127,-0.05178645,0.01187601,-0.4913518,0.2415605,0.8399639
3.479657173,0.04228127,-0.2315406,0.01187601,-0.4913065,0.2473831,0.8332065
3.482167721,0.1039857,-0.05178645,-0.1710764,-0.4878992,0.2459075,0.8375703
3.484678268,0.04228127,-0.1716226,-0.1100923,-0.4884284,0.2405716,0.8428735
3.487188816,0.1039857,-0.2315406,0.01187601,-0.4850022,0.2395516,0.8355803
3.489699364,0.04228127,-0.05178645,-0.1100923,-0.4913024,0.2483605,0.8346716
3.492210388,-0.01942312,-0.05178645,0.01187601,-0.4889002,0.2430052,0.8414342
3.494719982,-0.01942312,-0.2914587,-0.04910814,-0.4913665,0.2386336,0.8375121
3.497231007,0.04228127,-0.1117045,0.01187601,-0.4903604,0.2430039,0.8365746
3.499741554,-0.01942312,-0.2315406,0.07286017,-0.4844938,0.2444358,0.8433917
3.502252102,-0.1428319,-0.1716226,-0.1710764,-0.4845046,0.2415012,0.8380249
3.504762649,0.04228127,-0.1716226,-0.04910814,-0.4845178,0.2405419,0.8433618
3.507273674,0.1039857,-0.2914587,-0.1100923,-0.487432,0.2424978,0.8380303
3.509784222,0.04228127,-0.1117045,-0.1100923,-0.4839867,0.2448888,0.832221
3.512294769,-0.01942312,0.008131608,-0.2930447,-0.4874296,0.243971,0.8429002
3.514805317,0.04228127,-0.05178645,-0.1100923,-0.4893718,0.2459308,0.8419421
3.517315388,-0.01942312,-0.2315406,-0.04910814,-0.4883868,0.2459088,0.8365983
3.519825935,-0.08112751,-0.1716226,-0.04910814,-0.4849497,0.2488085,0.8390521
3.52233696,0.04228127,-0.2315406,0.07286017,-0.4840026,0.2439348,0.8395014
3.524847507,0.1039857,-0.1716226,-0.1100923,-0.4864393,0.2464021,0.8448628
3.527358055,0.04228127,-0.1117045,-0.04910814,-0.4864431,0.2449315,0.8409649
3.529868603,-0.08112751,0.008131608,-0.1710764,-0.4883987,0.244947,0.8409635
3.53237915,-0.08112751,-0.2315406,-0.04910814,-0.4859836,0.240059,0.840442
3.534890175,-0.01942312,-0.2914587,-0.1100923,-0.4859445,0.2463865,0.8404905
3.537400722,-0.08112751,-0.2315406,0.01187601,-0.4878841,0.2483412,0.837589
3.539910793,-0.1428319,-0.05178645,0.07286017,-0.4888726,0.2463994,0.8366017
3.542421341,0.04228127,0.008131608,-0.1100923,-0.4864335,0.2454053,0.8361099
3.544931888,-0.2045363,-0.05178645,-0.2930447,-0.4898704,0.2434906,0.8380362
3.547442436,-0.08112751,-0.05178645,-0.1100923,-0.4884354,0.2391075,0.8414047
3.549953461,-0.08112751,-0.05178645,-0.1100923,-0.4840286,0.2400448,0.8409292
3.552464008,-0.2045363,0.008131608,-0.2320606,-0.4874145,0.2464046,0.8429188
3.554974556,-0.08112751,-0.05178645,0.01187601,-0.4893795,0.244468,0.8409592
3.557485104,-0.1428319,-0.05178645,-0.1710764,-0.4878918,0.2468784,0.836606
3.559995651,-0.08112751,-0.2914587,-0.1710764,-0.4845029,0.2419905,0.8390003
3.559995651,-0.08112751,-0.2914587,-0.1710764,-0.4845029,0.2419905,0.8390003
3.562505722,-0.01942312,-0.2914587,-0.04910814,-0.4859526,0.2444318,0.8375604
3.565016746,-0.01942312,-0.3513767,-0.1100923,-0.4869357,0.2434648,0.8370664
3.567527294,-0.01942312,-0.1716226,-0.1100923,-0.4849798,0.2429561,0.8346347
3.570037842,-0.1428319,-0.1117045,-0.1710764,-0.4883937,0.2454298,0.8395097
3.572548389,-0.2045363,-0.3513767,-0.2320606,-0.4845032,0.2424837,0.8414333
3.575058937,0.1039857,-0.1716226,-0.1100923,-0.491817,0.2449663,0.8380461
3.577569961,-0.1428319,-0.1716226,-0.1100923,-0.4889222,0.2400926,0.844327
3.580080509,-0.08112751,-0.3513767,-0.2930447,-0.4849831,0.2439477,0.8414442
3.582591057,-0.08112751,-0.1716226,-0.1100923,-0.4854707,0.2429639,0.8360919
3.585101128,-0.08112751,-0.05178645,0.07286017,-0.4854794,0.2419956,0.8380279
3.587611675,-0.08112751,-0.2315406,-0.1100923,-0.4869323,0.2444435,0.8390173
3.590122223,-0.01942312,-0.3513767,0.01187601,-0.482534,0.2439193,0.8380448
3.592633247,-0.08112751,-0.2914587,-0.1100923,-0.4840036,0.2444293,0.8424203
3.597654343,-0.08112751,-0.2315406,-0.1100923,-0.4894172,0.239123,0.8443192
3.597654343,-0.08112751,-0.2315406,-0.1100923,-0.4894172,0.239123,0.8443192
3.60016489,-0.08112751,-0.3513767,-0.1710764,-0.4913721,0.2391372,0.843832
3.602675438,-0.2045363,-0.2315406,-0.04910814,-0.4869236,0.2463969,0.8414615
3.605186462,-0.08112751,-0.2315406,-0.04910814,-0.4883884,0.2464046,0.840003
3.607696056,-0.08112751,-0.1716226,-0.1710764,-0.486942,0.2429846,0.839492
3.610207081,-0.2045363,-0.1716226,-0.1100923,-0.4840153,0.2419892,0.8399723
3.612717628,-0.2045363,-0.2315406,-0.04910814,-0.4820597,0.2419737,0.8399736
3.615228176,-0.01942312,-0.2315406,-0.1100923,-0.4864611,0.2420111,0.8409425
3.617738724,-0.08112751,-0.2914587,-0.1100923,-0.4903558,0.2464434,0.8487472
3.620249748,-0.01942312,-0.1117045,-0.2320606,-0.4913311,0.2454608,0.842423
3.622760296,0.16569,-0.2315406,-0.1710764,-0.4932903,0.2449909,0.8429038
3.625270843,0.16569,-0.2315406,-0.04910814,-0.4898794,0.2420304,0.838025
3.627781391,-0.1428319,-0.1716226,-0.1100923,-0.4889056,0.2420305,0.8409409
3.630291462,-0.01942312,-0.2315406,-0.1710764,-0.4864519,0.241993,0.8341405
3.632802009,0.04228127,-0.2914587,0.01187601,-0.48546,0.2458985,0.8414588
3.635313034,-0.1428319,-0.1117045,-0.1100923,-0.4883924,0.2454272,0.838538
3.637823582,-0.1428319,-0.1117045,-0.2320606,-0.4864742,0.2395736,0.8394662
3.640334129,-0.01942312,-0.2914587,-0.1100923,-0.4893868,0.2434971,0.8419234
3.642844677,-0.1428319,-0.1716226,0.07286017,-0.4908455,0.2444783,0.8404723
3.645355225,-0.08112751,-0.1716226,-0.04910814,-0.4903532,0.2464382,0.8468038
3.647866249,0.04228127,-0.1716226,-0.1710764,-0.4849463,0.2497872,0.8410031
3.650376797,0.1039857,-0.1716226,-0.04910814,-0.4888769,0.2459152,0.8375697
3.652886867,0.16569,-0.1117045,-0.1710764,-0.4879048,0.2444409,0.8351299
3.655397415,-0.1428319,-0.2315406,-0.04910814,-0.4864471,0.2439542,0.8394998
3.657907963,-0.08112751,-0.05178645,-0.04910814,-0.4874329,0.2429923,0.8409493
3.66041851,-0.01942312,0.06804967,0.01187601,-0.4894232,0.2381496,0.8443117
3.662929535,0.1039857,-0.1117045,0.07286017,-0.4869553,0.2410402,0.8404488
3.665440082,0.1039857,-0.1117045,-0.1100923,-0.4840089,0.2434546,0.8419269
3.66795063,-0.01942312,-0.05178645,-0.1710764,-0.4820364,0.2448837,0.8361091
3.670461178,-0.1428319,-0.1117045,-0.1100923,-0.4884171,0.2415347,0.838994
3.672971725,-0.01942312,-0.1716226,-0.1100923,-0.4913618,0.2405948,0.8428715
3.675481796,0.1039857,-0.2315406,-0.1100923,-0.4869527,0.241035,0.8385054
3.677992344,-0.08112751,-0.05178645,-0.04910814,-0.4893768,0.2454479,0.8433959
3.680503368,0.04228127,-0.1117045,0.07286017,-0.4879055,0.2454273,0.8399959
3.683013916,0.1039857,-0.2315406,0.01187601,-0.4874073,0.2463904,0.8375744
3.685524464,0.04228127,-0.2315406,-0.2320606,-0.4874159,0.2454221,0.8395103
3.688035011,-0.01942312,-0.1716226,-0.1100923,-0.4894005,0.242046,0.8453132
3.690546036,-0.08112751,-0.05178645,-0.1100923,-0.4893839,0.2429987,0.837547
3.693056583,-0.1428319,0.008131608,-0.04910814,-0.4898558,0.2454324,0.8361077
3.695567131,-0.08112751,-0.05178645,-0.1100923,-0.4893909,0.2415347,0.8360782
3.698077202,0.04228127,-0.1117045,-0.1100923,-0.4849675,0.245395,0.8365967
3.700587749,0.04228127,-0.1716226,-0.1710764,-0.4844849,0.2449109,0.8390226
3.703098297,-0.08112751,-0.2315406,-0.2320606,-0.4888959,0.2434894,0.8404661
3.705609322,-0.01942312,-0.1117045,-0.2930447,-0.486943,0.242494,0.8380307
3.708119869,0.04228127,-0.1117045,-0.1100923,-0.4859683,0.2419995,0.8380276
3.710630417,-0.01942312,-0.3513767,-0.1710764,-0.4879262,0.2415269,0.8375368
3.713140964,0.04228127,-0.2315406,-0.1100923,-0.4889076,0.2410492,0.8380182
3.715651512,0.1039857,-0.2315406,-0.04910814,-0.4874441,0.2395658,0.8336353
3.718162537,0.1039857,-0.2315406,0.01187601,-0.4864388,0.2454156,0.8399968
3.720672131,-0.08112751,-0.1117045,-0.04910814,-0.488406,0.2439761,0.8419278
3.723183155,-0.1428319,-0.1117045,-0.04910814,-0.488383,0.2473793,0.8404963
3.725693703,-0.1428319,-0.1716226,0.01187601,-0.4859678,0.2434765,0.844355
3.72820425,-0.01942312,-0.1117045,0.01187601,-0.4889209,0.24009,0.8433552
3.730714798,0.1039857,-0.1716226,0.01187601,-0.4835178,0.2429536,0.8380367
3.733225822,0.1039857,-0.1117045,0.01187601,-0.48105,0.2458443,0.8341738
3.73573637,0.04228127,-0.2315406,0.01187601,-0.4869496,0.243492,0.8472695
3.738246918,-0.1428319,-0.2315406,-0.04910814,-0.487467,0.2381328,0.8438271
3.740757465,0.04228127,-0.1716226,0.1338443,-0.484004,0.2429523,0.8360929
3.743267536,-0.01942312,-0.2914587,0.01187601,-0.4849387,0.2502649,0.8376058
3.745778084,0.04228127,-0.3513767,-0.1100923,-0.49182,0.2444796,0.8380424
3.748288631,-0.01942312,-0.2315406,-0.04910814,-0.4923405,0.241097,0.8457897
3.750799656,-0.01942312,-0.2315406,-0.1710764,-0.4854403,0.2493082,0.8424566
3.753310203,-0.1428319,-0.2914587,-0.1100923,-0.4829915,0.2487879,0.83711
3.755820751,-0.08112751,-0.1117045,-0.2320606,-0.4830202,0.243918,0.836101
3.758331299,-0.01942312,-0.05178645,-0.04910814,-0.4854494,0.2458778,0.833685
3.760842323,-0.08112751,-0.2914587,-0.1100923,-0.4898868,0.2410596,0.8389893
3.763352871,-0.08112751,-0.1117045,-0.2320606,-0.4874315,0.2439749,0.8443577
3.765862942,-0.2045363,-0.1117045,0.01187601,-0.4854611,0.2444228,0.8356173
3.768373489,-0.1428319,-0.1716226,-0.1100923,-0.4903527,0.2444667,0.8375575
3.770884037,-0.2045363,-0.1716226,-0.1100923,-0.4849684,0.2458895,0.8395156
3.773394585,-0.1428319,-0.1117045,-0.1710764,-0.4844909,0.2439374,0.8390152
3.775905609,0.04228127,-0.2315406,-0.2930447,-0.4849855,0.2424746,0.8365744
3.778416157,-0.08112751,-0.4112948,-0.2930447,-0.4898565,0.2444485,0.8322134
3.780926704,-0.08112751,-0.1117045,-0.1710764,-0.4898578,0.2444511,0.8331851
3.783437252,-0.2045363,-0.1117045,-0.1710764,-0.488881,0.2449379,0.8361046
3.7859478,-0.2662407,-0.3513767,-0.2320606,-0.4893825,0.2439813,0.8409555
3.78845787,-0.01942312,-0.2315406,-0.2320606,-0.4942809,0.2420679,0.8389939
3.790968418,-0.08112751,-0.2315406,-0.1710764,-0.4888623,0.247857,0.8356411
3.793479443,-0.1428319,-0.05178645,-0.1100923,-0.4879148,0.2434752,0.8380375
3.79598999,-0.01942312,-0.05178645,-0.1100923,-0.4835435,0.2385704,0.8370314
3.798500538,-0.08112751,-0.2315406,-0.04910814,-0.4845013,0.2414947,0.8355956
3.801011085,-0.08112751,-0.1117045,-0.04910814,-0.4869277,0.2444344,0.8356164
3.80352211,-0.08112751,-0.05178645,-0.1100923,-0.4903801,0.2395942,0.8355768
3.806032658,-0.08112751,-0.2315406,-0.1100923,-0.4884194,0.2410467,0.8385044
3.808543205,-0.01942312,-0.1716226,-0.04910814,-0.4937699,0.2459617,0.8404816
3.811053276,0.1039857,-0.1716226,-0.1710764,-0.4908313,0.2459282,0.8365967
3.813563824,-0.01942312,-0.2315406,-0.1100923,-0.4883607,0.2497988,0.8351706
3.816074371,-0.08112751,-0.2914587,-0.04910814,-0.4874216,0.2439554,0.8370698
3.818585396,-0.01942312,-0.3513767,-0.04910814,-0.4883848,0.2459049,0.8351408
3.821095943,0.1039857,-0.2315406,-0.1100923,-0.4854507,0.2458804,0.8346568
3.823606491,-0.01942312,-0.05178645,-0.04910814,-0.4850018,0.2400435,0.8375275
3.826117039,0.04228127,0.06804967,-0.1710764,-0.4849935,0.241505,0.8380245
3.828627586,-0.01942312,-0.05178645,-0.1710764,-0.4888703,0.2468874,0.8370912
3.831138611,-0.08112751,-0.1716226,0.07286017,-0.4888919,0.2444667,0.8419312
3.833648205,-0.01942312,-0.1716226,0.07286017,-0.4879035,0.2454234,0.8385383
3.836159229,-0.01942312,-0.2914587,-0.1100923,-0.491841,0.2410724,0.8380163
3.838669777,-0.08112751,-0.2914587,-0.1100923,-0.485485,0.2415141,0.8399677
3.841180325,-0.01942312,-0.1716226,0.01187601,-0.4874159,0.2454221,0.8395103
3.843690872,0.04228127,-0.1117045,-0.04910814,-0.4879148,0.2444603,0.8424177
3.846201897,-0.08112751,-0.3513767,-0.1100923,-0.4864598,0.2420085,0.8399708
3.848712444,-0.1428319,-0.2914587,-0.04910814,-0.4825614,0.2390468,0.836064
3.851222992,-0.01942312,-0.1716226,-0.1710764,-0.4864611,0.2420111,0.8409425
3.85373354,-0.1428319,-0.1117045,-0.04910814,-0.4879355,0.24056,0.8399586
3.85624361,0.04228127,-0.1117045,-0.1100923,-0.4879372,0.2400706,0.8389831
3.858754158,-0.01942312,-0.1716226,-0.1100923,-0.4859639,0.2434687,0.8414398
3.861264706,0.04228127,-0.1716226,0.01187601,-0.4889006,0.2425133,0.839487
3.86377573,-0.08112751,-0.2315406,-0.04910814,-0.4845139,0.2405342,0.8404467
3.866286278,0.04228127,-0.1716226,-0.04910814,-0.4879285,0.242024,0.8414274
3.868796825,0.16569,-0.05178645,-0.1710764,-0.4893517,0.2488473,0.8405069
3.871307373,0.04228127,-0.2315406,-0.1100923,-0.4859678,0.2434765,0.844355
3.873818397,-0.01942312,-0.2914587,-0.1100923,-0.4859611,0.2444487,0.8438765
3.876328945,0.04228127,0.008131608,-0.04910814,-0.4849878,0.2429717,0.840465
3.878839016,-0.1428319,-0.05178645,-0.04910814,-0.4849727,0.2454053,0.8404836
3.881349564,-0.08112751,-0.2315406,0.01187601,-0.4874126,0.2454156,0.837081
3.883860111,-0.01942312,-0.2315406,0.01187601,-0.4903713,0.2425327,0.8424012
3.886370659,0.04228127,-0.1716226,-0.04910814,-0.489836,0.2488421,0.8371055
3.888881683,-0.08112751,-0.2315406,-0.1100923,-0.4859329,0.2468564,0.834178
3.891392231,0.04228127,-0.2315406,-0.1710764,-0.4893698,0.2459269,0.8404845
3.893902779,0.2273944,-0.05178645,-0.04910814,-0.4849624,0.2468629,0.8395231
3.896413326,0.1039857,-0.1716226,-0.04910814,-0.4849691,0.2458908,0.8400015
3.906455517,-0.01942312,-0.1117045,-0.1710764,-0.4879262,0.2415269,0.8375368
3.908966064,-0.08112751,-0.2315406,-0.04910814,-0.4874107,0.2454117,0.8356235
3.911476612,0.04228127,-0.3513767,0.01187601,-0.4928027,0.2449896,0.8438758
3.91398716,0.04228127,-0.4112948,0.01187601,-0.4878971,0.2468887,0.8404929
3.916498184,-0.01942312,-0.3513767,-0.04910814,-0.4839719,0.2488008,0.8390528
3.919008732,-0.01942312,-0.2315406,-0.04910814,-0.4869387,0.2429781,0.8370627
3.921519279,0.1039857,-0.1117045,-0.2320606,-0.4903363,0.2468977,0.8366044
3.92402935,0.04228127,-0.05178645,-0.1100923,-0.4898748,0.2430065,0.8390042
3.926539898,-0.08112751,-0.2315406,-0.1100923,-0.4888875,0.2449509,0.8409632
3.929050446,-0.01942312,-0.05178645,-0.1710764,-0.4869256,0.2464008,0.8429191
3.931560993,-0.08112751,-0.2315406,-0.1100923,-0.4883837,0.2473806,0.8409822
3.934072018,-0.08112751,-0.1716226,-0.1100923,-0.4864485,0.2429716,0.8360913
3.936582565,-0.08112751,-0.1716226,0.07286017,-0.4849738,0.2439296,0.8346422
3.939093113,-0.01942312,-0.2315406,-0.1100923,-0.4874299,0.2434791,0.8409531
3.941603661,-0.1428319,-0.2315406,-0.1710764,-0.4903497,0.2449534,0.8375612
3.944114685,-0.01942312,-0.1117045,-0.04910814,-0.4894093,0.2381224,0.8341087
3.946624279,0.1039857,-0.2315406,0.07286017,-0.4869441,0.2420034,0.8365694
3.949135303,-0.01942312,-0.2914587,0.01187601,-0.4908656,0.2415618,0.8419076
3.951645851,0.04228127,-0.3513767,0.01187601,-0.4898978,0.2396033,0.8404357
3.954156399,-0.01942312,-0.2914587,-0.1100923,-0.4884281,0.2400784,0.8404404
3.956666946,-0.1428319,-0.2914587,0.07286017,-0.4844477,0.2522274,0.8449088
3.959177971,-0.01942312,-0.2315406,0.01187601,-0.4864207,0.248336,0.8400192
3.961688519,-0.01942312,-0.2315406,-0.04910814,-0.4864692,0.2400564,0.8380123
3.964199066,-0.08112751,-0.2315406,-0.04910814,-0.4859692,0.242494,0.8409466
3.966709614,-0.01942312,-0.1117045,-0.04910814,-0.486917,0.2463839,0.8366029
3.969219685,-0.01942312,-0.1716226,-0.1100923,-0.4869503,0.2425082,0.8433751
3.971730232,-0.01942312,-0.2914587,-0.04910814,-0.4859886,0.2395762,0.8418958
3.97424078,-0.01942312,0.008131608,-0.1100923,-0.4883988,0.2439619,0.8365833
3.976751804,-0.01942312,0.06804967,0.01187601,-0.4883964,0.2444499,0.8370729
3.979262352,-0.01942312,-0.2315406,-0.1100923,-0.4898734,0.2430039,0.8380325
3.9817729,-0.01942312,-0.1716226,-0.04910814,-0.4879188,0.2434829,0.8409527
3.984283447,0.1039857,-0.1117045,-0.04910814,-0.4898329,0.2503139,0.8414894
3.986794472,-0.08112751,-0.2315406,-0.1100923,-0.4893659,0.244934,0.8331892
